timestamp,ax,ay,az,gx,gy,gz
2050261,0.0035492803937712336,0.006063443870446807,0.002207538356882576,0.13247412271538841,0.5205601807398481,0.5889053174199199
2050283,-0.0010059455342945618,0.0038004092357089994,0.00274381165550116,0.1791637825420055,0.10742635908200072,0.040982978374849585
2050305,-0.0033436139989253886,0.00048489104870552257,0.0026144450828166597,0.2935833664123844,-0.05581878454397696,-0.28298750914857235
2050327,-0.002751000351558627,-0.003994317997738101,0.0018107646471728965,0.39551868761662895,0.07630966042650893,-0.23286659253431774
2050349,-0.0003816437004040383,-0.007715181832907611,0.0006933198357464035,0.29860691513671517,0.3009092445148915,0.11262751445713969
2050371,0.0017470933401631332,-0.007532997453150002,-0.0006207955121951843,-0.06265639482635024,0.33730153076247565,0.42346198994838674
2050393,0.002192732766477741,-0.002383493761212421,-0.002086943305855927,-0.4764345571577735,0.07703173186095427,0.3841685315119574
2050415,0.0008747748997304759,0.004492448487816842,-0.0031520357799350502,-0.6044604398251102,-0.3155901328940683,-0.01404141777190321
2050437,-0.0010972609503413792,0.007711540973873031,-0.002961390353436141,-0.3223389166517493,-0.5508264508550276,-0.49749186565187453
2050459,-0.0022554269043209138,0.004399015858518354,-0.0012941649100973419,0.12258033928311665,-0.47279764239253763,-0.7920404549647495
2050481,-0.0018169216514299623,-0.0033040552929041456,0.0010197189612415473,0.31287863677356686,-0.1900216640303827,-0.829299217525235
2050503,-0.0003060597471008894,-0.009857251860066113,0.0027778665431739307,0.01846731720082256,0.04246308544073511,-0.7180933949989583
2050525,0.0008092380142161609,-0.010406160223914723,0.003379638110699749,-0.6172399933780097,0.07384237164494845,-0.6043964986003694
2050547,0.0002884607131896855,-0.0042904795782723265,0.003013596795086546,-1.1999656742663274,-0.0038974824267379404,-0.5798193789574481
2050569,-0.0017523637559670952,0.004482159043513231,0.0020119018172632223,-1.392256032788089,0.036928800922910246,-0.6711440739769258
2050591,-0.0035287544183747713,0.01019865046664059,0.00038084251828938314,-1.1587898802262,0.32157148890469606,-0.8744186980270213
2050613,-0.002562255333101396,0.009752116076598373,-0.0017690986772994689,-0.7761804374480132,0.7396734917981004,-1.190881417523094
2050635,0.002113645268523325,0.005141036738822466,-0.003482857711116529,-0.6148449823538024,1.0305664339960325,-1.6092662952721029
2050657,0.00818925272615035,0.0020338269560254865,-0.0032274060792292308,-0.8451516874376701,0.9983799407095039,-2.042171916650584
2050679,0.011510954571056801,0.004880071607790982,-0.0005898810650049343,-1.2711167208061807,0.674110165896208,-2.342615497038898
2050701,0.010488380111872198,0.0121721690409154,0.0021815064823005248,-1.4585678255469958,0.2738000332760048,-2.4516735826416536
2050723,0.008427811149994554,0.017017323873978175,0.0012288544134122544,-1.175808349904759,-0.04847855587412392,-2.5062183955562207
2050745,0.00990534732957109,0.015258041542450043,-0.005322658089393867,-0.8726952912311433,-0.42495378287419117,-2.787751319803338
2050767,0.014982222900673093,0.015324470019261899,-0.014995179960943164,-1.6385095808353767,-1.1800486857438692,-3.6678895794338775
2050789,0.018964474278492474,0.037298359183429074,-0.023163352969317024,-4.247065670334175,-2.4186614638365573,-5.613154990802721
2050811,0.01896354363286558,0.09487715354630552,-0.027720908613000368,-7.8049626844371565,-3.7284698048107594,-8.92257523563214
2050833,0.018783134487262397,0.17370395115784057,-0.03014618638773169,-9.463519897213038,-4.463936272875308,-13.077087805496168
2050855,0.0238425810666777,0.2313539984213293,-0.03096267939817437,-6.209308141588726,-4.454065256652995,-16.440219404263594
2050877,0.031256514053565575,0.2266839735524209,-0.02604284319720247,2.3131616503647447,-4.266866730687426,-17.2064927220899
2050899,0.030134977336277454,0.15414122514821485,-0.010912703371410336,12.576016321937969,-4.510383567970381,-15.17365576283883
2050921,0.01522296284131322,0.05119541288076369,0.010603846144947117,19.136494167517945,-4.987336780928837,-12.498229514687692
2050943,-0.003542842718811708,-0.0273128876293079,0.02536153724699722,18.542238405765072,-4.944336713909861,-12.13500322734719
2050965,-0.010130107180046723,-0.04650690917606705,0.02174217358147411,12.011461096814315,-4.220749941122428,-15.154346545675887
2050987,8.269981208955575e-05,-0.01249685492116628,0.0014380328651784737,4.486876646396341,-3.767078147177499,-19.790625673241664
2051009,0.01566826657394324,0.03772917789375607,-0.021266473205195032,0.7276135138517441,-4.754055342888709,-23.324732999770564
2051031,0.021519164548436387,0.06746591898783355,-0.03212870902461605,1.9670498155073508,-7.284470768879019,-24.53719914593045
2051053,0.012774731067119984,0.06442823675300127,-0.028025323124934,6.0368286544804866,-10.172788537932869,-24.060310829809232
2051075,-0.0032694356965185735,0.03971436072470473,-0.01633270079810415,10.080097568017543,-11.97012034232156,-22.928985112095184
2051097,-0.015742899391237197,0.010182718439027,-0.005738244502763578,12.693234449994266,-12.098311189525296,-21.491591745272657
2051119,-0.019438454008212803,-0.015812884450779486,0.0012969276354027597,13.923370259387331,-11.033155945200868,-19.561737992112423
2051141,-0.01738921791434074,-0.039683738522495994,0.008189911014652641,14.093951060845667,-9.585274677683742,-17.04800606957504
2051163,-0.0157370441933929,-0.06445786726793352,0.017837651520840624,13.023563308601315,-8.169537742976113,-14.285013977515845
2051185,-0.016440016384081345,-0.08675823955920833,0.027274628323301787,10.285936641063863,-6.786979894608626,-11.899899038861998
2051207,-0.016363150930857565,-0.09733412477068408,0.029662216735470374,6.040513935828907,-5.559927722714682,-10.412032126099037
2051229,-0.013991581026779885,-0.08999714849862793,0.02225355902013938,1.3857585474573881,-4.997148331793316,-9.943952364078822
2051251,-0.013862983999492531,-0.06922293326006654,0.011124907075193894,-2.229600365703551,-5.5068626024338165,-10.172872161474942
2051273,-0.0214599550650795,-0.04796916356253386,0.006166247216034192,-3.858146060143049,-6.706891453635114,-10.286379440707309
2051295,-0.03569636948694296,-0.03774950881759283,0.01149481373108737,-3.418748564303524,-7.4868449792622584,-9.141289329385659
2051317,-0.04937703591416314,-0.03954023442334729,0.02181823741587182,-1.7018720546332216,-6.919763887322896,-6.261900893747559
2051339,-0.055774972663064706,-0.042849261093860974,0.02777292498841332,-0.19895392478137186,-5.06095949445578,-3.073372207621937
2051361,-0.05263187054907423,-0.035388518415285605,0.023790894181369773,-0.27972223171705046,-2.7757546519292675,-2.290720053696374
2051383,-0.04167959349894772,-0.017246691096933307,0.01139276972161095,-1.7844430184237228,-0.8721378687289282,-5.035822576136171
2051405,-0.027897971252282154,-0.005788271723830329,-0.002822407695747486,-2.602274358623384,0.42029028421165254,-8.905140048560217
2051427,-0.019430124593213735,-0.022996920373699156,-0.010702540682277323,-0.5421078356501592,1.1498990590432023,-10.181784514364477
2051449,-0.024039135854079668,-0.07422942829399025,-0.006023918943394082,3.8966792862228283,1.218547112500411,-8.27002672549837
2051471,-0.04093761559855105,-0.13765662991341632,0.010743164249377626,7.094196032930236,0.6074020217301951,-6.869201526232384
2051493,-0.05626233847816506,-0.17629102316337214,0.029408259203304338,5.451787627043536,-0.18854945835790657,-9.96088498850677
2051515,-0.05215154605379268,-0.16610723784432976,0.035944724426760166,-0.7657395687793629,-0.48363677774558705,-17.09635667208043
2051537,-0.024756527341273815,-0.11793514973448116,0.025716069393487015,-7.054900940432412,-0.2500051528151162,-23.340041450810666
2051559,0.008058517867685687,-0.07194107951294078,0.009823686220981702,-8.501219449001438,-0.2272310764748836,-23.759070716582123
2051581,0.02085509287364899,-0.06581375591418019,0.004875280008274457,-4.129645061661707,-0.9470228101715854,-17.68713739551217
2051603,0.004156405086713555,-0.10320367198940103,0.015974209618307037,2.412009831970228,-1.9081325955053927,-8.976086107716183
2051625,-0.026869948349024515,-0.15167616349681623,0.03192846056141117,6.301452514781957,-2.044394155376254,-2.6321032164980256
2051647,-0.0476779383450813,-0.1732356563336435,0.037844588704562976,5.654617388806748,-0.9538447160008248,-1.0268072285302126
2051669,-0.04695151403882932,-0.15801282214397352,0.03025347403703702,2.487664668957928,0.6265620937595432,-2.671465254117567
2051691,-0.03322311469759252,-0.12779639611728957,0.018256601057253657,0.08408924090073827,1.6280773771821087,-4.178800335971114
2051713,-0.02193666688248975,-0.10916614536626978,0.012008458942281149,-0.14081873333651415,1.6839120690225604,-3.3478214170655054
2051735,-0.020374691430466184,-0.10837535021235073,0.013609547275274466,0.7608600657199871,1.2320753135237488,-0.6019847626328968
2051757,-0.025222414537687334,-0.11250782078237065,0.018806098920573357,1.0343364399970332,0.8497123316835253,2.0552762731139067
2051779,-0.029615500231058002,-0.10774709726926306,0.023079049759364718,-0.07596001047726757,0.7951831924696415,3.056457128668764
2051801,-0.028912915543278968,-0.09105903419839556,0.023627242492537042,-2.133754948195654,1.098335576284356,2.370975263277123
2051823,-0.022190369903910278,-0.06769895193530455,0.018424709890018934,-4.205940584180431,1.687703982582738,1.1515449929023236
2051845,-0.012603321634515777,-0.04437694463854134,0.007484677728202591,-5.415339760608109,2.2743077737624677,0.6377760437893613
2051867,-0.006466856412862341,-0.026408761964603164,-0.0049692379724494045,-5.230591149171675,2.3880834236945563,1.2604390552490519
2051889,-0.008794684238354979,-0.017556640207582415,-0.012519740453523217,-3.741615999620314,1.7917805027215012,2.4592214140243382
2051911,-0.01822101081712854,-0.01895296259259298,-0.012105868600939564,-1.7310196809679468,0.7874765070657053,3.20541367612331
2051933,-0.027529278575243895,-0.0277631254778814,-0.006668370400800468,-0.22743861827927053,-0.05423823658132254,2.823703685167458
2051955,-0.030306402060426937,-0.03835938355946643,-0.0016947908606082238,0.20569108762329708,-0.4451387699612139,1.509166344499796
2051977,-0.02658573652343421,-0.045860461056732534,7.837979851246655e-05,-0.22342034458653284,-0.5485360321770986,0.11610679008722805
2051999,-0.021350661422028273,-0.04880647442235166,2.477938923158885e-05,-0.9028171067391063,-0.6395939583830101,-0.6102381289032737
2052021,-0.01846206862116293,-0.04884836547731633,0.0007568685075094136,-1.4072261517931275,-0.7742575842439453,-0.6485138030272157
2052043,-0.01752588792872683,-0.048455970012607534,0.0032749264479559337,-1.72081012435163,-0.8658860767134716,-0.5856867704486223
2052065,-0.01640794380799543,-0.04871744541428377,0.0068662997575274385,-2.0138790377325595,-0.9321367477464338,-0.9451185058158975
2052087,-0.014871273784165157,-0.04849717042391188,0.010449258143696813,-2.340121290795468,-1.0769289524836536,-1.684652368021739
2052109,-0.014568798995395621,-0.045555363237880515,0.013116664259116203,-2.5525991063367455,-1.2589128594316519,-2.3320735436271627
2052131,-0.016347210191570302,-0.039281864243111794,0.013945406606161016,-2.4256865077123626,-1.2699556862392765,-2.514896205927201
2052153,-0.019131471649560104,-0.0326919637203365,0.012460973584573591,-1.8365553348377393,-1.0176283807918565,-2.299753027427283
2052175,-0.02156999146693445,-0.03074862301965137,0.009532811356716717,-0.909660577041449,-0.6962999490965233,-2.0502339871918602
2052197,-0.023422344375608445,-0.03562475407978753,0.0070756596389751295,-0.042756221015174074,-0.5567308160144389,-2.0251979221949665
2052219,-0.024809761148972237,-0.0440503604074911,0.006497903941159766,0.2718941342233026,-0.5827225130176149,-2.1593579505578084
2052241,-0.025368439837487117,-0.0506078097663624,0.007775785211735595,-0.22100704504810184,-0.5416951050768343,-2.2238666191157175
2052263,-0.02504359766988102,-0.053663762987649695,0.01001808343372607,-1.3044351519160504,-0.33352979719419146,-2.1351490679437526
