timestamp,ax,ay,az,gx,gy,gz
2043221,0.0006798012347643683,0.0008357186976977317,0.0012063230914475258,-0.3831450665352301,-0.011421368420706405,0.38389621671996127
2043243,0.0024743547660017614,0.0002947939181207437,0.0020242636502571967,0.04778832647465294,-0.10976595076682734,0.1705921640346747
2043265,0.002673224911014668,-0.0020384114161628845,0.002727059668411092,0.3542962076983165,-0.11937649053285067,0.10345033101276029
2043287,0.0011726725464143077,-0.005513336620966105,0.002684869982270367,0.44048750602649095,-0.03323327492125136,0.1857456658698236
2043309,-0.0009327615248605544,-0.0072103525856866725,0.0013400446478517482,0.28337222410097146,0.07092336555410605,0.3062682788768888
2043331,-0.002604744736968518,-0.005029139028611505,-0.0007828907336363735,-0.017103503276335218,0.11077984333836258,0.3473934460560786
2043353,-0.003297030998896119,-0.0002905535881888457,-0.0022555345774949256,-0.2746024383717437,0.0788705417058309,0.22283452326141925
2043375,-0.0026097989882606946,0.003519451339306525,-0.00227219287858903,-0.34576432081076813,0.03074682304109675,-0.1124492612789418
2043397,-0.0003286942121928453,0.005084818143271067,-0.0018141128789301015,-0.23021219717336422,0.0066988431474755035,-0.5794624595242757
2043419,0.0031362679265770875,0.007896832142535337,-0.002858846824633364,-0.04936633464340182,-0.014945872886649121,-0.9353443277463579
2043441,0.006977018417111118,0.017921524934243788,-0.006267716262403356,0.03424238924349492,-0.09599447039201188,-0.9825486371473144
2043463,0.010984125206299631,0.03862505835330554,-0.01078763468272343,-0.11511656613979827,-0.29090306323768933,-0.9319240086013507
2043485,0.015931438975985212,0.06815940138729147,-0.014496130572955608,-0.47213772368264073,-0.6191055983391648,-1.50883470863246
2043507,0.022414994706057078,0.09981670291110105,-0.016906400216934188,-0.606599848100805,-1.0720189047202289,-3.543645314725115
2043529,0.029045759949116758,0.12319532540232618,-0.018762297885094523,0.3632948950201547,-1.646896201706717,-7.287003031518413
2043551,0.0317430949019369,0.12620315860862555,-0.019474691603557893,3.1924034745582333,-2.3616296779612127,-12.014273177662425
2043573,0.025498073216084913,0.10149501943837293,-0.01590673886987927,7.528079079221564,-3.180684625448766,-16.351537558619924
2043595,0.008823830227553639,0.055378524635546725,-0.005363096917090919,11.568991911490672,-3.880769990543734,-19.242507238326848
2043617,-0.012139174553270533,0.008487477665987779,0.009909499450613451,13.109667702569956,-4.059852450125065,-20.840775133051935
2043639,-0.02562208129413172,-0.01808784230482074,0.02281007478805515,11.307394457405989,-3.431141081215087,-22.391499374605225
2043661,-0.023262946022280493,-0.020441897470086047,0.027612189666905065,7.527333297775123,-2.157097348054278,-24.94441957009113
2043683,-0.007860667608858816,-0.013502038861669044,0.02553974423655823,4.252520469105279,-0.7981017072383287,-28.1047582513214
2043705,0.0086232543408622,-0.011629666022909229,0.022284701182521603,2.930999067079102,0.1356272615049287,-30.2920559614757
2043727,0.015041823685099,-0.009526079780065599,0.020138800039558865,2.997017848621223,0.5505864360361259,-30.35340839940839
2043749,0.010028438745451666,0.011174273759957406,0.014894040894744246,3.1841283761742445,0.6681241202869801,-28.800786012300584
2043771,0.0028006453267069792,0.055299853953902314,0.0015064543016045243,3.4199318363193436,0.5869033501744247,-27.478349468768315
2043793,0.004611735796551817,0.10066023520378506,-0.018335450507756052,4.800553973595587,0.0077782042971771305,-28.15431927618889
2043815,0.016986712822514138,0.11527386547282137,-0.03488412604255164,7.714665323793123,-1.500363793210221,-31.35708847815587
2043837,0.02843563493999986,0.08650687279047323,-0.03661001607938705,10.535854442552099,-3.8522158597064258,-36.42944345415533
2043859,0.02584195592451605,0.03318960925413224,-0.019612995802654406,10.536017208529158,-6.065431852858059,-42.60818190099151
2043881,0.010177927129380402,-0.00908508238580754,0.007264506361841266,6.377070962252454,-6.6925724754467915,-49.61574597230592
2043903,-0.002202937901052045,-0.018124808475189408,0.028117811379501798,0.07062030013314718,-4.897567676048996,-56.69757382315271
2043925,0.003178426831903867,-0.007261519360858534,0.033837872560896515,-3.8201119259024185,-1.3084325325774546,-61.57301916665158
2043947,0.022278728345621678,-0.015364935668001945,0.030016754795997254,-2.1083211299459017,2.223363007875029,-61.73960937483757
2043969,0.037356805703620787,-0.06498517581023185,0.028027944423681492,3.288046943710702,3.9275288202322796,-57.40796657007296
2043991,0.037936814220330725,-0.12970322438475268,0.029122713539758843,6.6164458019270596,3.3657831719079843,-52.02689044346632
2044013,0.03118816246172012,-0.15595463931495207,0.023279331712280006,4.475471199346015,1.5034144110573293,-48.648532924997326
2044035,0.029208200700089868,-0.12412006424530704,0.006002870553653941,0.03614877696537547,-0.26929121230993347,-46.25939282186037
2044057,0.0323474570005348,-0.07678777918711635,-0.010515521586612321,-0.4274579573783437,-1.0536544380525943,-41.152163044998574
2044079,0.032122360290943064,-0.07423353542014452,-0.010394582157732805,4.990774329188642,-0.6400193608924907,-32.039132638184725
2044101,0.027844217703104048,-0.12727246223496091,0.004109190721215628,11.484740584593366,0.665756938814005,-22.36508868492148
2044123,0.030499165087174148,-0.18791875467075334,0.01264467168570146,13.089870150798422,2.129213787908365,-16.679322020673652
2044145,0.046577367303521106,-0.20587660775601774,0.0013733476166119623,9.065245844918628,2.7657429515979812,-15.603766801949494
2044167,0.06567417644689308,-0.178938511373163,-0.01960746355533216,3.6744842315932527,1.9114692716360242,-15.623114830206639
2044189,0.07136942600713707,-0.14257154769416963,-0.02880614956267461,0.8106108160500571,-0.17990424514471182,-13.511301596108506
2044211,0.06075984149605461,-0.12584065146554108,-0.017956816686198623,0.6071198586260196,-2.4238074059185113,-9.46695865547303
2044233,0.04586484196876804,-0.1307705237051839,0.0026647110088298363,1.0173469553751675,-3.700204866730351,-5.486510374459121
2044255,0.037498880666955225,-0.14491969845972996,0.019561628233755686,0.7569813946875423,-3.565684296960268,-2.149052149058671
2044277,0.03571098375316826,-0.1568897710953997,0.02814836405267246,-0.08889374475131775,-2.2977697840009337,1.60181516727077
2044299,0.036600239242248034,-0.1590231928004704,0.030267777252396596,-1.150368941689652,-0.5327203325324781,6.09949680376405
2044321,0.040226704057423394,-0.14681335635386222,0.027616082106030997,-2.2781019813644585,1.0166167339718024,9.947230911006287
2044343,0.04735191138453612,-0.12147330247319102,0.02078675943797266,-3.2099193948285674,1.757698481706095,11.704245118801355
2044365,0.0534893724824745,-0.09001076508300507,0.011009017589659064,-3.5056018568194345,1.4964462924180688,11.616876527773966
2044387,0.05212781874837947,-0.060524327694479935,1.2957463607239476e-05,-2.945710892052226,0.5862802133898715,11.109607524891898
2044409,0.04277935365411034,-0.039004036928206184,-0.010182769017590437,-1.6763813733447275,-0.35400125746834854,11.116165779626446
2044431,0.03166433712123473,-0.030529411090689948,-0.015876711252073256,0.040016693451893584,-0.9393003243960883,11.509118220756397
2044453,0.024428513845074475,-0.038726250782440026,-0.012362881648627276,1.8650636057587875,-1.1834409142083806,11.804849157542746
2044475,0.021479722826164747,-0.059875370093464476,0.0010312247733106103,3.1309497814674216,-1.2104804483577734,11.692166383613078
2044497,0.02088805578328174,-0.08029469521082884,0.017363422160819784,3.0298187416876265,-0.980630599150611,10.899923842836802
2044519,0.022339393037390107,-0.08591248645932827,0.026698167363620278,1.4273600728628346,-0.39397443611327015,9.213783435260446
2044541,0.0260964752641525,-0.07564810489870959,0.02513166161575583,-0.7322369183773801,0.43862934980362656,6.883584083832318
2044563,0.03019746716586725,-0.06136233515788413,0.017486226630842105,-2.1835568138697625,1.162396514608825,4.640652698258228
2044585,0.03155563553001389,-0.05379129644493219,0.010837293725729674,-2.43067215257209,1.4343706280162325,3.0592400327973257
2044607,0.029703064112386875,-0.05253349581927294,0.0075751767448342085,-1.8901478979990989,1.1826571893838969,2.098907053382274
2044629,0.02760224142891127,-0.0512885770061256,0.005739183072927272,-1.140490239147284,0.6328017081379337,1.4193903726562493
2044651,0.02821787706351334,-0.04853152363102414,0.0038422270824022865,-0.38844842194866297,0.11702600377842709,0.913238505925952
2044673,0.03119047043344685,-0.048698551392608605,0.0027641918320062044,0.3349222033779771,-0.15693903417495458,0.7018060140434027
2044695,0.033499157519207616,-0.05412145819700603,0.0032850789191460374,0.8309037348189096,-0.20482197093030075,0.7493881030714484
2044717,0.033038604212090594,-0.06027185062106744,0.0041392825358151225,0.8541754989163759,-0.18365797273535261,0.7652885452524564
2044739,0.030868715758012102,-0.06080417494818293,0.003614505747066311,0.4849440968133031,-0.23678792859265063,0.5318913886574216
2044761,0.029745928937065506,-0.055314410431088944,0.0020472294237166232,0.1541113575373468,-0.4127018502969887,0.16691991977712037
2044783,0.030859818550042994,-0.05002433795775266,0.0015728267545549134,0.22357458546173956,-0.6807784787608215,-0.029876943092156494
2044805,0.032493348484145486,-0.05101977184878419,0.0035485531477120725,0.6123605063410523,-0.9645892113354954,0.07567442609510347
2044827,0.03185519391064219,-0.057968913975314396,0.006943009817382496,0.883743171487343,-1.1608905452938083,0.33538191608105716
2044849,0.027888931502381864,-0.06466700600859195,0.009368374864949585,0.674874095000014,-1.181205658206864,0.5211102674618879
2044871,0.022336412475513122,-0.06510918318171902,0.009208855339869584,0.029578136746506816,-1.0129149923828578,0.5477423898605395
2044893,0.01845447095065099,-0.058858564211353714,0.006608390380472576,-0.6434264028366429,-0.7334770297788038,0.4641835581858496
2044915,0.018649253650715163,-0.05113682913525396,0.0030351105711626538,-0.8997447885308794,-0.45233635572241865,0.3273601125553631
2044937,0.022670249212620338,-0.048251539294428485,0.00047535090423747844,-0.5953983739307591,-0.24861734713514744,0.19468876423849657
2044959,0.027582895594887247,-0.05253202296359038,0.0005921310137626413,0.0010671607512305406,-0.1611859435207057,0.18425541636036513
2044981,0.02984718610907534,-0.060593131191519094,0.0035865734120003145,0.40277003168338754,-0.18615331536703555,0.3960000930033325
2045003,0.028230607456261544,-0.06582367519379986,0.007481156214428048,0.2988887089310222,-0.24766687189648842,0.7530212175153062
2045025,0.02495403632639875,-0.06316157129174498,0.009164913695005078,-0.15287810815133596,-0.2283030102975627,1.014989472175868
2045047,0.023607673725667015,-0.053000676317932476,0.006938275968006334,-0.43233058953230513,-0.10714302033636594,0.9734469608989216
2045069,0.025687735872130246,-0.041569265289686914,0.002237981738837604,-0.11000623306903844,-0.04734859006542435,0.596384425984531
2045091,0.029188640936772363,-0.03717649703733322,-0.001273499742400861,0.7811354785605266,-0.25854492764965215,0.030345800309113567
2045113,0.03051794221435852,-0.04456869576458691,-0.000488498778124885,1.8047986096569413,-0.7432464404326186,-0.45561084335169394
2045135,0.027830541092292604,-0.06117476549787995,0.0047516154546192926,2.484103368633136,-1.23513093847956,-0.588963795909276
2045157,0.0228129038817532,-0.07788763206401711,0.011271344498489485,2.573655046915645,-1.431757726583894,-0.30546575934352266
2045179,0.019374556681720775,-0.08424117802078869,0.014483438434268926,2.070548180642556,-1.2577108151696377,0.14086535518168342
2045201,0.02034108364326455,-0.07512121613121112,0.011607478216817294,1.1086420745618564,-0.8620874581257767,0.3956517063271039
2045223,0.025000962421818585,-0.054679980215774145,0.003976943960630594,-0.1065309538349743,-0.40696209414516366,0.37980085258400337
