timestamp,ax,ay,az,gx,gy,gz
2022145,0.008900950305005694,0.0044100315754801375,5.486540262014885e-05,0.8889790691987183,-0.02183492954721802,-0.9535316649453172
2022167,0.003869909220733373,-0.0014080810169761675,0.00020344373119350314,0.35411083774971347,-0.014952341397463972,-0.7712340201158073
2022189,0.0005805240261883901,-0.003587727115825218,-0.0008600659532953058,-0.1016720242674995,-0.027568649135041725,-0.6001798065888787
2022211,-0.0003815935369243872,-0.0020465666834779722,-0.00286491390765072,-0.359920248516232,-0.07508634986933281,-0.3695439389633175
2022233,0.00013426542183850925,0.0004100307112373801,-0.00422771165269485,-0.3528185419650376,-0.14499492881521533,-0.01768225410978546
2022255,0.0005825414918205697,0.0014984415750245654,-0.0035501485303498065,-0.17261568415316336,-0.18172272243204932,0.37173857509748665
2022277,-2.727545078837888e-05,0.001217662871890346,-0.0009242921682805577,-0.020600210481742563,-0.11403029458941331,0.6237842490872069
2022299,-0.0012864054626834064,0.0007793698303377406,0.0020009487878843036,-0.02787879854571807,0.08510636347619903,0.6707358408454718
2022321,-0.0019168120078487453,0.0010897901893139668,0.003234675225732716,-0.1519503713417407,0.34717916923416026,0.6165799942640923
2022343,-0.0014427153941658603,0.002449493432319417,0.0020037047179999688,-0.2515993589828027,0.5241192398604451,0.583294800547861
2022365,-0.000855310637102357,0.004592433935839745,-0.0007419107336166413,-0.22493634031338886,0.5113572928116404,0.5863699952439957
2022387,-0.0008989256863069772,0.0062883201188311585,-0.00335326803397185,-0.06284215692935097,0.38386798681206213,0.6167187614430708
2022409,-0.00043602376987685976,0.005748362434393699,-0.004858157541860172,0.17207964475868362,0.34312600347173344,0.7366582511054963
2022431,0.0019330588592983186,0.0025427291154618507,-0.00522695455158419,0.3650047313311096,0.4666560628380893,0.9678851436687089
2022453,0.004933044651734713,-0.001215257399948543,-0.0046602541824364045,0.3889153461368596,0.5721480170533539,1.141183177981854
2022475,0.005356772251744512,-0.0026611253342082417,-0.003229336208402085,0.20290981073565148,0.4220345777627002,1.0085703947299236
2022497,0.0023179266187294376,-0.0012019098260147676,-0.0012412772639716146,-0.08471026877079585,0.026055802897975638,0.5267730061549396
2022519,-0.0010279729113376274,0.0009645566177763519,0.0006749239727503191,-0.3001945254154455,-0.35943861547614936,-0.05303982544662435
2022541,-0.0011417660645498414,0.0014105134595652862,0.0021243980951803775,-0.3641986249400616,-0.5158288486262672,-0.3930242981677601
2022563,0.0017347511727493878,3.95366403989714e-05,0.003139062825893345,-0.35215367467763936,-0.44391309723967964,-0.3457007814691889
2022585,0.004310761414591836,-0.0008286738547070648,0.0035774438672119993,-0.4164437543137507,-0.2727319059915771,-0.09508870106504476
2022607,0.004346475526286334,0.0017927355045261422,0.0028120596141161156,-0.670204821393571,-0.11464487210248799,-0.07915807388475157
2022629,0.0025754886437046403,0.009757135039413122,0.0004606510824870758,-1.0737914161009443,-0.045072424016495444,-0.6408898896287332
2022651,0.0005675815416769005,0.022577015025300597,-0.002777356913391997,-1.331867652708422,-0.10854141772414325,-1.5954359122837287
2022673,-0.001841979252054886,0.03728536907526557,-0.0056107900834732015,-0.9696297447361107,-0.26530969745878247,-2.263201726505589
2022695,-0.005608739896148578,0.05058808875951219,-0.00792780067137256,0.24568028507662987,-0.4062480063669615,-2.24920725087032
2022717,-0.009122334421158822,0.06260727097526138,-0.011833130043316568,1.817926662823856,-0.5316806018482431,-2.2807777913631977
2022739,-0.007597885540656873,0.07789589625431904,-0.019863113848196855,2.6340479442844296,-0.9161135963776534,-3.9540789404505383
2022761,0.002295225023027759,0.10063137283429714,-0.03129101914866312,1.928726878386453,-1.9857534183035428,-8.175289730181017
2022783,0.016828430676272557,0.1281251001817545,-0.04058447790993543,0.3416444995723314,-3.9205499936832964,-13.60647368914663
2022805,0.02530790946712421,0.15071293813782655,-0.040668800972716114,-0.13424289191221034,-6.339452918737499,-16.863646064759266
2022827,0.01756463853644383,0.15930537747318446,-0.028489664055969904,2.4036124539526686,-8.396886477345157,-14.858620816678851
2022849,-0.0068238374394017105,0.15182738817824057,-0.007667958496477767,8.095322151689349,-9.261651501816049,-7.601263695820267
2022871,-0.036396337923311164,0.1311098867512127,0.014056679752060933,14.904967838672931,-8.669893009820088,1.0303208843528973
2022893,-0.05614010862587366,0.09951331679727651,0.029697810424569128,19.800711365074594,-7.177608674161336,5.555004429544651
2022915,-0.058927980002024725,0.06031594885684308,0.03561523834236078,20.582468371713336,-5.861987965861608,2.570888458243628
2022937,-0.04923734689820689,0.023050060703399496,0.03112838593408741,17.116006989223806,-5.6145382177949195,-7.07110571189357
2022959,-0.0372399382672234,0.0005319004794285542,0.018210928478866836,11.234168731637812,-6.5722945846382155,-19.24848278580645
2022981,-0.030719055626133245,-0.0025576316017767685,0.002161317868834737,5.389548101929713,-8.123554474659688,-29.67168515125694
2023003,-0.03174756355003022,0.005042726548179414,-0.009525275207652912,1.0380461437044533,-9.380498295188973,-36.456027795314874
2023025,-0.038541520902672675,0.00988331233955813,-0.011283291332665995,-1.9557020923185957,-9.678411010218143,-40.319060153039686
2023047,-0.048575978313613266,0.00647519596432918,-0.003404350481758718,-4.463134486592726,-8.810484994943293,-42.821088571540514
2023069,-0.05968196977603546,-0.0004458677664990641,0.008197332190125597,-6.7542296539511835,-6.990274867102154,-44.54910614407076
2023091,-0.06878543520145845,-0.005192690011452065,0.01612947525386673,-8.117063141578098,-4.6570004148586,-44.795817745509346
2023113,-0.07035789908258612,-0.009390500148270937,0.015438534771571895,-7.828798399009181,-2.2952401537525216,-42.8140150173364
2023135,-0.058216729241731414,-0.019022724548689317,0.005272920839198676,-6.371001387910326,-0.4301691340826136,-39.31027268135702
2023157,-0.03220599445919434,-0.03484858275253121,-0.009907212132314738,-5.437767402211627,0.32105362555463707,-36.45908458423979
2023179,-0.0031444706025896578,-0.04882088740749244,-0.020629487631462547,-6.459488662880671,-0.48253944981055535,-36.00026232841608
2023201,0.013704821531917608,-0.05159886520552103,-0.018493917385420736,-8.884872054320178,-2.5486479117572056,-37.14756443711525
2023223,0.012569979423192918,-0.04377130147651712,-0.004484390080597345,-9.991436925570635,-4.737568728970559,-36.733372493906096
2023245,0.0008054691337716553,-0.03817639880807669,0.011604451708891541,-6.976886107692732,-5.8447790667674635,-31.97328367254813
2023267,-0.012465446865009087,-0.04763330252717129,0.02127110201006303,0.1364064448575884,-5.524030722893432,-23.391795084253776
2023289,-0.024711812408352896,-0.06931325567044859,0.023434596415641776,7.833303904055221,-4.292215274744124,-14.90397814162899
2023311,-0.03457235583464061,-0.08580186431382522,0.020354689611604512,12.046316467784878,-2.8068162181883722,-10.583006822407313
2023333,-0.037199894158541094,-0.08500146347734944,0.013481587862865093,11.883928732141177,-1.4510691538233833,-11.002394803102035
2023355,-0.031750920010005984,-0.07483547227380728,0.0059800944405831915,9.934865590091826,-0.4329313667807842,-12.852535535496296
2023377,-0.02671496489169281,-0.07330522746353241,0.003761972166410606,8.981657261790954,0.23607961282961767,-12.396225003071558
2023399,-0.02975700928495881,-0.08696632420663983,0.009241954031356364,9.263760721800322,0.9128359437448174,-9.127388078510222
2023421,-0.03606838751088479,-0.10552446783761481,0.016890217861598788,9.221904678428066,2.028895759424461,-5.675947229104673
2023443,-0.03391572650412719,-0.11716260755189288,0.01901712019124723,8.039353115674462,3.4539039031577725,-4.386688158664959
2023465,-0.019879418164211602,-0.12261838618246057,0.014604088091859955,6.580874646768345,4.45014107686235,-4.82148174434896
2023487,-0.0027202630272219926,-0.13125012960404744,0.009501509469965957,6.030006130203017,4.439987043895907,-4.862250843926169
2023509,0.007240594815105706,-0.14732003030414487,0.008892572358061365,6.391317913349854,3.6223765847794165,-3.3952171286537665
2023531,0.007567667645515238,-0.16391172080293526,0.012135040062857783,6.602749944526979,2.675614305906998,-1.0788420750185983
2023553,0.0020154681741666068,-0.16826640021192488,0.014656131213795045,5.703461354755939,2.008406356340129,1.0831455809613293
2023575,-0.006146035124769878,-0.1501828976976636,0.012752432857210182,3.6130234413248177,1.490512005348795,2.8710844066237415
2023597,-0.016308402346026925,-0.10795993602560824,0.006296890410243154,1.0716200906275613,0.8447309559807713,4.444718517683194
2023619,-0.027736926892095354,-0.05136396314189325,-0.001645855683511777,-0.845072260652339,0.08236136238180007,5.591507768988118
2023641,-0.03764502272170368,0.000641033730995381,-0.007051191244344885,-1.3149126029899716,-0.5289005275548835,5.796040353777529
2023663,-0.04301701338432048,0.02899716928074539,-0.007499620910662128,-0.2656331940339605,-0.7939265053393041,4.81224122627135
2023685,-0.04316793650445785,0.025335827563988635,-0.003580983052826893,1.5566126426703766,-0.7360913292889201,2.9762617746651263
2023707,-0.0396815122325338,-0.0034877099359999484,0.0017720885011106398,3.0750829649203166,-0.45585995470614904,1.0880734125695117
2023729,-0.034900081893435825,-0.039906187321384956,0.0055417478254995,3.5564542011268108,-0.008208154864440858,0.018918659671360527
2023751,-0.03128952514996984,-0.06571624287087208,0.00657510244953684,2.955526113626396,0.5348277003414971,0.1623472947273554
2023773,-0.030703333558277455,-0.07130797196356596,0.00540217533046895,1.7598523022410364,1.0149689761128118,1.0416682512056488
2023795,-0.03256112193158169,-0.05847426545431251,0.0024425282680481833,0.5872424533574467,1.25840370133992,1.5805059369803753
2023817,-0.0336565720013341,-0.03615604765319307,-0.0026823344776944306,-0.0881921969156115,1.1742252283047803,1.0414277864043726
2023839,-0.03167074390396533,-0.014346428972506951,-0.009290070885234388,0.04111050933971458,0.7602843924712721,-0.2184055240050919
2023861,-0.028881719882024454,-0.001483045388307002,-0.013575045823031,1.112823374240094,0.09984984402115207,-1.0548734652354665
2023883,-0.03066055810783585,-0.004217583238340618,-0.010148812249017689,2.869549183875957,-0.5572562894830165,-0.7254040481088934
2023905,-0.03922606583276666,-0.024583527400882172,0.002697540463672241,4.418505957628905,-0.773198642401725,0.22314693084935122
2023927,-0.04975956668895277,-0.055146486499002535,0.019199981028381052,4.523724236169052,-0.15995188730507226,0.34880657056038994
2023949,-0.05405886234048517,-0.07990928787747789,0.02902156789713712,2.5447276509723795,1.2672615966261669,-1.2634049580774456
2023971,-0.04810895437084537,-0.08468357131825818,0.025384336631635435,-0.765564443354755,3.018385656782991,-3.8867351709575897
2023993,-0.03547230968449312,-0.06819176992560795,0.010780071576012315,-3.5816654631695237,4.436778834716134,-5.547065344610069
2024015,-0.023467897596285946,-0.04183045016568526,-0.0054470793461289125,-4.383994566993322,5.054196767137257,-4.745676885580906
2024037,-0.016883139982414936,-0.018638440977997935,-0.014928796350047065,-3.121426199328783,4.725571377696911,-1.8929096449652152
2024059,-0.015624125200057362,-0.0044930471351647076,-0.015626972252033498,-1.0068268432734844,3.60849349170942,1.0376629183017743
2024081,-0.01738742873957411,4.476407174804477e-05,-0.010686550095316813,0.7466165565269605,2.0904982733450406,2.276304471562472
2024103,-0.02100969671211177,-0.006421657716070987,-0.003975853449727885,1.8574929093306731,0.6234888974329016,1.5669031497717905
2024125,-0.02671892121614876,-0.025984863856228384,0.0026239233463654444,2.750711345752818,-0.5157009322262107,-0.18516960125977527
2024147,-0.0341886145856821,-0.055530270330844005,0.008930639862417529,3.7449522496013326,-1.3680339496474756,-2.152230372331563
