timestamp,ax,ay,az,gx,gy,gz
2092391,-0.0018666369122239555,0.006430475635318417,0.00036747584655914107,0.6830498951624446,0.3236712858557741,-0.2898604999554927
2092413,0.0026883590192122273,-0.006366538192322846,-0.00043436101745933836,0.34080314430545844,-0.08736040895581255,-0.14877612584740368
2092435,0.004076214648081517,-0.011438239544323672,-0.0007240617230369981,-0.10542266478944197,-0.3415812372112515,0.008443154840797313
2092457,0.0018994054542176893,-0.0069568785161357215,-0.0006541597073981423,-0.5651774886734232,-0.36083495863119264,0.1505269578095221
2092479,-0.001260547256750746,0.00250867746109861,-0.0008716948097849391,-0.7896602634369906,-0.18373012839912012,0.21332967861110477
2092501,-0.0024653470035936086,0.010267952195035188,-0.0015508920077378474,-0.6121652941195215,0.056603059837731895,0.15352204974075725
2092523,-0.0012715362218309952,0.011983836284741896,-0.0018418001097075807,-0.14286903164657716,0.2161783709167315,-0.014223082238413657
2092545,0.0003003858202315861,0.007391047874224536,-0.0007710079010842843,0.29063852474421337,0.25185397888625827,-0.18591104114866427
2092567,0.0004981948342979391,-0.00047685217425835524,0.0012974948218055285,0.4016726132687134,0.24925972094648546,-0.16081654011254548
2092589,-0.0003110484782832672,-0.007288301912193132,0.0026821097595413584,0.13741042588984606,0.29568110282320464,0.24270944738863862
2092611,-0.0009107041733948135,-0.00977869158077803,0.0021574879990683368,-0.3750381803420961,0.32654053762563745,0.9512055195102429
2092633,-0.0013689755914615058,-0.007466955957182084,0.00030199866271809675,-1.0212316221040887,0.16435217199077157,1.5370839552353739
2092655,-0.0028226086271408444,-0.0025679938650705657,-0.001218519981594056,-1.770591267471424,-0.24120617944201836,1.5305329678046784
2092677,-0.005547009450175334,0.0017659976465737302,-0.0012940573614105303,-2.5520365527163,-0.6370553181447547,0.9760605451377992
2092699,-0.008211766768087644,0.003247416883384283,6.833085307797086e-05,-3.1595422119871435,-0.59371562826879,0.60004822247377
2092721,-0.008929937991299828,0.0013232839940017223,0.002341743296156602,-3.4114601256316996,0.13158789601849838,1.1845756910044416
2092743,-0.006692921968087421,-0.002288959608998285,0.004936103680902222,-3.4215257563534536,1.3086960560413596,2.653410073712632
2092765,-0.0025342472907996048,-0.0034045856451410906,0.0071124936540753825,-3.5768739193186057,2.3063100266868934,3.909403991804417
2092787,0.00021975863241834284,0.002852303736472561,0.007939255870900216,-4.098210314753836,2.5397827421236827,3.7770042474205865
2092809,-0.0017216649798393099,0.01800668261623721,0.006428732258992471,-4.6330795913414216,1.9767557643105766,2.1517530284907047
2092831,-0.007284132290694545,0.03741922004195741,0.0015935719586231177,-4.473830893599106,1.2151559347107772,0.11584152189843738
2092853,-0.009710401920618079,0.05269945934361384,-0.007094834810926266,-3.3784229587452193,0.9197905475667486,-1.167379795461937
2092875,-0.002424308928174229,0.05829478123796112,-0.01807163461142759,-2.1915498833827085,1.0647264575823752,-1.6168411537938345
2092897,0.011985726793164272,0.05703960141657554,-0.026052636216491218,-2.4423193949223765,0.8466790316876359,-2.1494874231986993
2092919,0.020323168345203643,0.061324969689901095,-0.023898528133594017,-4.991579011994217,-0.39256766356378286,-3.377927087428131
2092941,0.010222812675817648,0.08847068433748809,-0.009152734584860857,-8.754563089023273,-2.08925162782728,-4.517282988809448
2092963,-0.014987157382812793,0.14734216429135275,0.010608840946053766,-10.703864358639475,-2.5939894315922465,-3.7650904557638025
2092985,-0.03548062915970933,0.220173206079308,0.021920451086922987,-7.697584656322818,-0.8068481089112277,0.15484814221581913
2093007,-0.03332379099019028,0.26116411979115467,0.017525050795393828,0.6392692935006088,2.2293822201286786,6.734997130178313
2093029,-0.011889863588567114,0.23104523709245472,0.002760241409733758,10.3008785623127,3.8021661089205923,13.69363211444652
2093051,0.007129562240143354,0.14422175776237703,-0.012495518035070728,15.013020574888326,2.1066196756068254,18.137293327792364
2093073,0.007272425979279432,0.0703763640320861,-0.02542695422127955,11.536521238044228,-1.698832899925015,18.371107398817443
2093095,-0.006850801041983908,0.0721070635352476,-0.038800925929324534,3.4364770176739894,-4.483917771643305,15.525040063957295
2093117,-0.02019697421749523,0.141744364221196,-0.049461590023875665,-1.2960469915951143,-4.310815625841569,13.25074398207833
2093139,-0.028275385143069934,0.21079811247791794,-0.04588868522118364,2.7603156394394097,-2.239010071650556,14.421310086598552
2093161,-0.03972433412042411,0.21997656157192277,-0.020919703553891132,13.851350636517076,-0.8326542222049708,17.366497315175923
2093183,-0.058351302630363276,0.16944970263270923,0.01642789982603942,25.413195605865255,-1.2864366463168424,16.3845593629098
2093205,-0.07049463612147809,0.10249473559412683,0.04526047206612378,32.407624078948906,-2.418528377457559,7.374514155193983
2093227,-0.05581381031957748,0.05357337089328973,0.04904341601996975,35.076476447383676,-2.328391317707356,-7.020593660764702
2093249,-0.009733019104206255,0.017723990102701894,0.02871557117982507,37.20979419044725,-0.616680982925024,-18.88822995563703
2093271,0.047051968734113096,-0.03617012742309726,0.002907115305435833,41.44342100342298,1.117707953472513,-22.189524399620392
2093293,0.081663051149509,-0.12615913078224558,-0.005297200571051923,46.080780820212524,0.7678175027014614,-18.16267877587173
2093315,0.07395454362828578,-0.2278076930769491,0.012524601224463267,46.29934106990937,-2.3218491504209338,-13.549605495699252
2093337,0.033826550216067744,-0.2860297778624641,0.04083493791693223,39.03671156455285,-6.706572966318966,-13.98183865942864
2093359,-0.005181879120648637,-0.26711986596955817,0.053648634340339084,27.153491745073744,-10.120647102579658,-19.202570606112644
2093381,-0.01534713209587147,-0.2017933206539585,0.04161712355970528,18.05562362044136,-11.467017825566408,-23.96774927771271
2093403,-0.0012508660239436658,-0.16437502734575762,0.023260971630054254,17.060539671125152,-11.442634467916156,-23.08708973273697
2093425,0.00714645108519703,-0.2001184725266272,0.024512313441638275,22.057223597855373,-11.177575574794457,-16.127519959574233
2093447,-0.009724999282262177,-0.2796098625709527,0.04866160999920391,25.538786574268787,-10.651168285807705,-7.770286241760418
2093469,-0.03838042242066582,-0.33314465420465633,0.07279118408146361,22.140950330079644,-8.896537742983678,-3.2541380694518036
2093491,-0.05085149018289661,-0.32424605954167346,0.07495564705893619,13.541685275939333,-5.6124162344926685,-3.177798454030693
2093513,-0.03967215026587729,-0.2787572655914892,0.05821128605479978,5.731434132339153,-1.9499646500791257,-3.4015255526574784
2093535,-0.023871652711971506,-0.2447488330099712,0.04314488093482727,2.4273071505735953,0.5448038763177252,-0.42546455425625174
2093557,-0.021535344362612424,-0.23898411829729746,0.04171913056845532,2.1928467121491844,1.3683243711537953,4.245305031871177
2093579,-0.028134664689885916,-0.2406052996769362,0.04653772037709664,1.6018771696857572,1.1246132653703005,6.177636488788734
2093601,-0.026911154117972604,-0.22841995014727404,0.04555340848017018,-0.33255888159174063,0.4865084369619761,3.641078481291641
2093623,-0.01291053194527764,-0.21064977754210526,0.03949900944574946,-1.6713555109820875,-0.3915961722372514,-0.34902612179787984
2093645,0.0015882281375373256,-0.21459764374766907,0.039959790845335144,-0.6699626004532672,-1.4412101976994753,-1.548980443219681
2093667,0.004097159859681985,-0.252821439658654,0.05280593761536356,1.7265264007167909,-2.1883131609754223,1.1953515866230693
2093689,-0.003245910862315925,-0.3038558729334471,0.06844520679780798,2.6224321952877543,-2.1324620440859396,5.451754753960554
2093711,-0.00966050808767924,-0.3262247279500952,0.07040596640727191,-0.07920922069415645,-1.549359282738162,8.025059709322038
2093733,-0.011870345741749982,-0.29242599226311344,0.0522443309332425,-5.7257077671168535,-1.4809352965874605,7.544405008431541
2093755,-0.017151722070550705,-0.213011775562801,0.02414993734094155,-11.325121188588444,-2.6377215458907446,4.767498141905669
2093777,-0.030527249762381026,-0.12937143594068337,0.0030395262010275356,-13.783862526913378,-4.47700284302846,1.3814601177270733
2093799,-0.045864567542032615,-0.08111866984823017,-0.0020595113247212572,-12.098543741747312,-5.681394008390388,-1.145370259641815
2093821,-0.052868104880196366,-0.07804363761806277,0.005425755053191717,-7.776407617212148,-5.53634252401306,-2.1045762425515657
2093843,-0.04895312353191147,-0.1012094826970582,0.016641044009215848,-3.3544933197021187,-4.589041898764904,-1.6600928578019207
2093865,-0.04083187051418209,-0.12636766838502853,0.025690528597794266,-0.5551935365897304,-3.9076022048639474,-0.6181143009220492
2093887,-0.03633582381874921,-0.1425671380644505,0.03127240197898144,0.3883282327699844,-3.9009678149231215,0.1638839517071359
2093909,-0.03774144465872947,-0.15165079912329504,0.03348494379639309,0.17439856267968018,-4.000519593272987,0.4334354253136714
2093931,-0.04258955807193234,-0.15799151480439508,0.03215387236030828,-0.41199012651546885,-3.409092470610547,0.6567025287014502
2093953,-0.047967253330994164,-0.16248426861115242,0.02809488428000902,-0.9862909923160742,-2.0060936454410423,1.330494159148829
2093975,-0.05223286883519348,-0.16325183507325883,0.023403756637246757,-1.630654242752236,-0.484498409940074,2.179781437588967
2093997,-0.05388173297323354,-0.15829653546133962,0.019202185556735123,-2.5878110852689113,0.29926851603475335,2.2973631950076667
2094019,-0.05153387993156563,-0.14751201448703471,0.014552646089982725,-3.758237082330447,0.0359428947919445,1.2417462428636716
2094041,-0.04622994380058356,-0.1336695605375022,0.00898350069496664,-4.51779845378661,-0.8764693097680626,-0.2158058774963325
2094063,-0.042091832672612496,-0.1212175918846419,0.00490370461710902,-4.201880110319857,-1.7200580509310808,-0.7425767507776094
2094085,-0.042641126684000205,-0.11314279402406487,0.005592653011676806,-2.7843898402046405,-1.99516995879976,0.16762855795419518
2094107,-0.04676351231352415,-0.10931218688890734,0.011096309887369558,-0.9273136181888355,-1.7236826236215375,1.6823245454372375
2094129,-0.049920077618185545,-0.10836741242337797,0.017843171268371556,0.6640882096576806,-1.344970859352999,2.540200677229224
2094151,-0.04941056279995337,-0.11028110578313349,0.02256745301330254,1.7892530569682745,-1.3135986772513184,2.2800071003774605
2094173,-0.047265545224029856,-0.1161246498380515,0.025332685682630175,2.638708754855205,-1.7263308404339155,1.5008668104712912
2094195,-0.04771959050966842,-0.12616618598595866,0.02832908344060216,3.319329978800323,-2.2679691340978247,1.0808772090218772
2094217,-0.05242778217975333,-0.13910388202808047,0.0326701677764756,3.607121611338974,-2.488613711189172,1.2811535251931265
2094239,-0.05846903057298807,-0.15209846857152876,0.03681978089282137,3.112602440670259,-2.174055099534458,1.6053062543488437
2094261,-0.061510838957849596,-0.16058605620448219,0.03778639108822463,1.684321230679233,-1.5232453247913533,1.5029050957625105
2094283,-0.06123392288107727,-0.1600062397089295,0.03395354062074475,-0.2587572095521695,-0.9847682944843125,1.1217250217778691
2094305,-0.06214124254862201,-0.15033144098452642,0.027028798998042673,-1.8496533909723072,-0.8671846086959756,1.13420964891041
2094327,-0.06717928813751604,-0.13840583894863692,0.02079966925053842,-2.423716509367582,-1.069434222944976,1.7127737119458388
2094349,-0.07202906078460558,-0.13369649014675844,0.017802201079066535,-2.075666579853163,-1.1990263507406267,1.9702861283526645
2094371,-0.06919011276642158,-0.1410489443229873,0.017772455817322654,-1.430492394492851,-0.9526729409321574,0.7992207058716516
2094393,-0.057899974148416564,-0.15726246691901627,0.01908641922564431,-0.8962331002608594,-0.3775989235379615,-1.7613121850940239
