timestamp,ax,ay,az,gx,gy,gz
2071315,-0.0011636843279053432,0.003307921574730987,-0.0028897704689429806,-0.2904666352205824,0.2980714418967422,1.1028588466869667
2071337,0.0017315776504361394,-0.003353665877853904,-0.0014215187679544683,-0.09380186547615756,0.038072522519665766,0.5355654663069782
2071359,0.0017740876253497016,-0.00479499837355498,-0.000953554026142547,-0.0812939376780615,-0.2291481647029083,-0.06760155384703859
2071381,-0.0007279506920448512,-0.0013636189992641116,-0.001167271290381401,-0.1573345554335448,-0.4141678365536225,-0.5914620858607547
2071403,-0.0025538306452858946,0.0012327787207607292,-0.0006789376817436122,-0.0673641651384144,-0.38355111775707834,-0.8117234228151163
2071425,-0.001281785112386714,-0.0014492028483544988,0.0012943157836786986,0.21892505798551254,-0.12359762962758425,-0.6022239033440837
2071447,0.0016428388103911847,-0.006618891138433216,0.003639827645409846,0.4099978708461799,0.1917172383094375,-0.10037818912881924
2071469,0.002550707457838795,-0.006713924640406196,0.003960546803067131,0.2665183081662775,0.34120918014879487,0.3291652968042328
2071491,0.00024098423536416435,0.0018650817561970577,0.0007919238598785206,-0.039263499755345835,0.24777408111474544,0.30650433453570874
2071513,-0.002287887703847433,0.014344884504033968,-0.004701391909868384,-0.07914077348767,-0.006182162843139476,-0.3274546781078418
2071535,-0.0014954142883379553,0.02248007075633419,-0.009358212714508199,0.35683206083864066,-0.323704726131275,-1.394935581414976
2071557,0.0022359366176064807,0.021896309076727925,-0.010316124981301708,1.068926649049267,-0.6768668497470174,-2.440554337247536
2071579,0.004877381593785601,0.01356545615624261,-0.006731746465441286,1.7102442197441297,-1.022032816422001,-2.9305526810944835
2071601,0.0033607881135307906,0.000432746384277359,3.869814805918534e-05,2.0783603038997476,-1.2047602969398277,-2.5178683423877977
2071623,-0.0009317774445621838,-0.01390209498857192,0.0070239180616442284,2.072012670450964,-1.0561622390034973,-1.2759171910100267
2071645,-0.003710387985640292,-0.02261160111991779,0.01059058558336519,1.5171457778242838,-0.6254720516110313,0.24317451245161456
2071667,-0.0024104185176505592,-0.015497114792816805,0.008171095709400354,0.3153491158269812,-0.26255939269100204,1.2349908221286572
2071689,0.0015588238978426878,0.013361801044768121,1.6161772936051748e-05,-1.094066102089696,-0.3831415287252129,1.084655798029524
2071711,0.005414529452561588,0.05594446698307547,-0.010963681747057571,-1.575224674175073,-1.102057457616989,-0.19555891355040397
2071733,0.008718364661194055,0.0918060402124493,-0.0214129093564193,0.04282778353977888,-2.0914899781736573,-1.7942132125110013
2071755,0.013080352008839374,0.10445258770330856,-0.02909048210227024,3.840751227176354,-2.829006789451435,-2.4832857153642145
2071777,0.01819799511976928,0.0978120275264292,-0.03195954121713016,8.315470236340095,-3.065753121534295,-1.6222011682182826
2071799,0.019751722795381142,0.09407952685280073,-0.02741351554783021,11.331888335832176,-3.160645320778884,-0.08807666806253432
2071821,0.012816108024546163,0.11223859640276189,-0.015038854908213446,12.088833835968144,-3.985571289355438,0.10161036879438236
2071843,-0.002491223274146475,0.14683305551840187,0.00020066699436394617,12.365420232902167,-6.363015222664569,-2.312546060074708
2071865,-0.02039279930472752,0.1682901552613272,0.01141850965707747,15.260461558883334,-10.349164641813033,-6.286051344785655
2071887,-0.03580072248295413,0.14811004377689013,0.01777040321987331,21.827909946891218,-14.906192837395347,-9.479082985496941
2071909,-0.0492970460583391,0.08766417058952039,0.02484265681219788,29.012512216933995,-18.352463217576194,-11.160402838515271
2071931,-0.0625476112611484,0.020598805354910123,0.034782094196561815,31.9210587131739,-19.422141478129415,-13.516372293242645
2071953,-0.0706623728882256,-0.01684454726530329,0.04043698821118601,28.559784529622302,-18.19970633392241,-19.34690443043915
2071975,-0.065916396090131,-0.0171970832596657,0.03363673312920775,21.680244652064477,-16.146783677996275,-28.616385369616264
2071997,-0.051565768256698355,-0.002347379614096345,0.017405787341653985,15.66159292838188,-15.042616143836838,-37.98094975723802
2072019,-0.045067623666172944,0.00312305277727307,0.005297543397517524,12.35024414479144,-15.505487767338964,-43.92427439095984
2072041,-0.05891481432851878,-0.006178863599703834,0.006574614594447193,10.646022437095514,-16.281323321167804,-45.82245132664785
2072063,-0.07969553103057925,-0.021643627909843977,0.014472637466982158,9.716842349067846,-15.176922083692405,-45.316599921741584
2072085,-0.0776930769301951,-0.04248031956400403,0.014061561702553411,11.288472406476819,-11.16360689356661,-42.87093761505709
2072107,-0.043643715415643526,-0.08336692127457494,0.0025975489827126702,17.56730617698188,-5.698780334612977,-36.30776081077905
2072129,-0.006317725922779328,-0.15343486744823825,-0.004736313245583502,26.960185298404525,-1.651882785233128,-24.232947014906824
2072151,-0.0011767017338518157,-0.23208308049298212,0.00508744971285703,33.42187474007449,-0.768785646450642,-10.552526446316161
2072173,-0.0269774088300683,-0.2791912805305897,0.022973742824618285,31.615032881282534,-2.4456596774535004,-3.0844423963931518
2072195,-0.04903335958713593,-0.2751653584686462,0.0273244466604345,22.628559740185406,-4.928318355973153,-5.70803139323906
2072217,-0.044534385612672575,-0.24291714696149874,0.011825615403982139,13.501249481034547,-7.001586028518409,-12.634055649463754
2072239,-0.027922216761001137,-0.22414706758433484,-0.005605260756483395,10.858240199615336,-8.182162687761227,-12.312938447727786
2072261,-0.027149661124359414,-0.23963357775105032,-0.0026813354000045173,15.483310571199274,-8.079456467733339,2.4738283729289825
2072283,-0.04957680311054387,-0.2769666316538287,0.025103790351269695,22.621962179305488,-6.531909089482033,28.39622325272068
2072305,-0.08039058600920909,-0.3085014406637698,0.06296893047010245,26.269675665201913,-4.228074904398786,54.14947084655214
2072327,-0.10478466276555667,-0.3124742481678191,0.0909064450835528,23.169215196277946,-2.342631590161011,68.2455802065609
2072349,-0.11933642446661484,-0.28278621992922137,0.09670439436265124,14.41023181973227,-1.263718458480719,65.82018934353525
2072371,-0.12422402587299802,-0.23115919660688847,0.08056237859050018,4.491434323356846,-0.18781153690177677,50.533833655826015
2072393,-0.11637636944589991,-0.18225283222662048,0.052885795390434066,-1.6814861425181902,1.6218545137143334,30.899984021444013
2072415,-0.09539500151265573,-0.15907579590749846,0.028010238412893906,-2.1288827899867506,3.5115275406998006,14.00397385843373
2072437,-0.07049486742753563,-0.16760613260190252,0.01656216872954402,1.1999953850378282,3.935470516268531,1.8373597192666131
2072459,-0.055247085798639774,-0.19516404649617994,0.020225647113543153,4.609226980761368,2.258357307022922,-7.1443688504917695
2072481,-0.0557238712869627,-0.22344205118010793,0.03213833371355038,5.800240752917424,-0.4309353052163542,-14.160245812665014
2072503,-0.06675351536803933,-0.2423706588850976,0.04285890245481304,5.092171765897079,-2.4636294025485235,-18.534663116573917
2072525,-0.07931244247964422,-0.25282132783152234,0.04736147917030303,4.145522893605175,-3.158879149722138,-19.211694623221955
2072547,-0.0886188448610602,-0.2592791002687929,0.04715705084912573,4.015146138363535,-2.998769879556041,-16.529383589092177
2072569,-0.09467594046104938,-0.2628767540412081,0.04644635313930445,4.454783166180403,-2.611226567669164,-12.18014786139513
2072591,-0.09820061839254454,-0.261997065354688,0.047330600472326234,4.647532211374047,-2.0977044286595667,-8.015077543957318
2072613,-0.09885191597112514,-0.2568380844078662,0.0489072396293877,4.1360248612721024,-1.337324693481736,-5.16033522951146
2072635,-0.0968394190040645,-0.24982119433642017,0.04951070168010133,3.003910324625458,-0.4695406218945064,-3.833827760496496
2072657,-0.09390002670125816,-0.24124338961269248,0.04834338874597084,1.5254968225034857,0.19553373051681172,-3.5456593195474695
2072679,-0.09171759030488032,-0.22765739129718054,0.04522998086609183,-0.02680847027166984,0.5559311633770055,-3.5319353195673786
2072701,-0.09010442883531548,-0.20691319297155272,0.04016646333529723,-1.2748058768889126,0.7606403589602441,-3.283893761310239
2072723,-0.08744003276352698,-0.18379861873290948,0.03369949676527167,-1.741291102885314,0.9038165626992613,-2.7986206214838245
2072745,-0.08310581547926688,-0.16829211613599354,0.02732722864694829,-1.1864300864178565,0.8409750469130067,-2.3727110841972445
2072767,-0.07944873895663783,-0.16739636720726037,0.02314283313493986,0.07559431934151495,0.3760536635304868,-2.229624788380443
2072789,-0.0804789307903197,-0.17920669604978656,0.02282523864216082,1.3151723461739904,-0.40678569514471175,-2.345412843061256
2072811,-0.0874044969040508,-0.19480106545316067,0.02639116509636871,1.9016854658426847,-1.0633142072497386,-2.534802840540784
2072833,-0.09570298411095074,-0.20500520592908558,0.031570561388344257,1.6960027557731872,-1.108766767326344,-2.638864358150259
2072855,-0.09814768378214717,-0.20570263044751827,0.0349014270613228,1.0078002575995242,-0.46254509724412624,-2.647922188044117
2072877,-0.09148341674739113,-0.19873043107373395,0.034261470782606676,0.27054185795566277,0.4230498637048205,-2.681847412097404
2072899,-0.07974967794849688,-0.1893341509239229,0.030668102156129768,-0.23556553745658584,0.8975843680892236,-2.868480934802865
2072921,-0.07076302822463561,-0.1822416895699366,0.027338451849800414,-0.4468389202147079,0.6138442483984717,-3.2482548250927876
2072943,-0.06948469321394221,-0.1786011198105592,0.026603808710067095,-0.38605968323745243,-0.23457960647095027,-3.7839489861403464
2072965,-0.07495055954965048,-0.17630928468507712,0.027869370550643015,0.046137822711963025,-1.0988801544468327,-4.414316882617832
2072987,-0.08307663772939221,-0.1740683573932257,0.02900021546357753,1.135228558472438,-1.464890545804736,-5.110072028958582
2073009,-0.09059626775985373,-0.17479834090008572,0.02928087945418873,3.0543032495032882,-1.1157438537276045,-6.022936843389412
2073031,-0.09491066946595064,-0.18316952494237235,0.029884308982887454,5.372816043508472,-0.1709390412910709,-7.611991995046115
2073053,-0.09216817089589709,-0.1988721545892007,0.031312115042842134,6.998052552403634,0.9590577164337771,-10.294286782741525
2073075,-0.07956784423619981,-0.21391380936168916,0.03169779081509845,6.916554733765133,1.6489637980246545,-13.63024688039344
2073097,-0.06066823254992226,-0.21864061106302532,0.028748331011368224,5.16299856114761,1.2932511131904159,-16.039595780735237
2073119,-0.04570365651788227,-0.21094067727364788,0.023163160235437682,2.9763929610587265,-0.30463687622554214,-15.85819657327335
2073141,-0.044216016533961566,-0.19893553564699268,0.019232756100416484,1.8332412568506404,-2.6950818135825525,-12.915725842951801
2073163,-0.057311416951506176,-0.19386036891051775,0.021336589863858176,2.2121288165669384,-4.973102617199461,-8.86584656569532
2073185,-0.0773577934384615,-0.19952985930319342,0.029567550985121094,3.2605187239119773,-6.272795547059498,-5.752519513281473
2073207,-0.09436819958758844,-0.20867002876733248,0.038943514605349026,3.6674814563991327,-6.185091431697848,-4.3064212598923035
2073229,-0.10250780241489349,-0.2105257077045451,0.043400543726605983,2.8796739641263773,-4.875385090593685,-3.7138188511806924
2073251,-0.10215878674848847,-0.20261349931429679,0.04102518976304739,1.5140666450824785,-2.931313009935705,-2.8426857397668837
2073273,-0.09758556279652275,-0.19389312689062882,0.035378936216478626,0.6903066000509764,-1.041488670649297,-1.3790292052226965
2073295,-0.09289429459974378,-0.19516997980642983,0.03146862851016669,1.0454663759661251,0.3703449834131581,0.25582553440926553
2073317,-0.08937733499142306,-0.20703525576022105,0.030612828160395355,2.2993434848297434,1.3552430677545395,1.743206051988391
