timestamp,ax,ay,az,gx,gy,gz
2085373,0.007477655794845118,0.0007223339015260704,0.00013048199220084847,-1.0368837517447622,0.34204292903781375,0.41372274888809185
2085395,0.002375437074956541,-0.006678978624515406,0.005367568876689785,-0.9419066351419523,0.24751517956118785,1.0956597627532838
2085417,-0.0010251263907208475,-0.0067530825222125385,0.006015137989000208,-0.9978931526643325,0.17321849724734484,1.1051285991297188
2085439,-0.0019309785755436248,0.0015128927112502558,0.0014445693710473436,-1.058072912702803,0.15808000890721882,0.4887242041917478
2085461,-0.0009087338817661307,0.01202613184525273,-0.004753600710686107,-0.7814235958861339,0.20139473574376743,-0.1524283175527057
2085483,0.000503965080858328,0.01671261051625901,-0.008120314192080124,-0.037672289167033926,0.20927178683879208,-0.42757165791784324
2085505,0.0009113619768825426,0.01193877945776894,-0.006842154122285627,0.8661080913185285,0.0633797023012067,-0.5126729731573739
2085527,-1.1045167270738854e-06,0.0009069554117178671,-0.0024097716542578777,1.424085811544063,-0.2377762240886781,-0.7293179302189002
2085549,-0.001532705933715413,-0.009605089904373944,0.0023665505990458934,1.38961722687857,-0.5304808613378206,-1.007264986806542
2085571,-0.00280876495962389,-0.014804649741860389,0.00548205375370906,0.9547885452118916,-0.6003595279873593,-0.9648172445207365
2085593,-0.0034177222362543245,-0.014624056408724448,0.006268226605962677,0.4788386711108918,-0.35848473452245894,-0.47667165195988975
2085615,-0.0032970526799900265,-0.011917773292331402,0.004838119042727766,0.11455805482897084,0.08414001989431986,0.05850375486250635
2085637,-0.0023787139643958125,-0.009069465908165592,0.001783579141199298,-0.2378492577502932,0.5079412688933692,0.16393674897727667
2085659,-0.000789044480800538,-0.00658757797813057,-0.0016525289138133903,-0.6666341665223876,0.747107759196091,-0.10503308309472675
2085681,0.0006976243538470202,-0.00409102329417378,-0.003777172227037469,-1.0628615955795124,0.7811081931219482,-0.21679052595581977
2085703,0.0010671450102748643,-0.0016594869006847732,-0.00341893489392374,-1.2381320582210853,0.7132164760466765,0.14930867153311825
2085725,0.0002783650802023907,-2.8130301500010955e-06,-0.0008676698011340586,-1.1555147153606617,0.6883743381118251,0.6808259488061575
2085747,-0.00034685735408346074,0.00040405240814711367,0.0022570560384451684,-0.9716799500925019,0.7981742115352247,0.8193736234994667
2085769,0.0005318584487190995,5.3545031618370374e-05,0.004171410623086565,-0.8593274735662724,1.0015837363435278,0.44005939276680794
2085791,0.0025558441073178805,1.03080075583764e-05,0.004092506856688138,-0.844346469504024,1.1241831900625932,-0.02280787371299671
2085813,0.0036642469876270686,0.000656882759768789,0.002541719977676728,-0.8438869309649875,0.993350175929101,-0.10247951744649982
2085835,0.002105261124609499,0.0011107277533111437,0.0007554254585097876,-0.8288958531642099,0.6358387716914129,0.20071930683950223
2085857,-0.001488109801657933,0.0003269087583962033,-0.0002517191840122649,-0.8914609188086258,0.3319444584185124,0.5042236074895416
2085879,-0.004258452138430598,-0.0012395141990189785,-0.0003100331242248033,-1.1383685188772779,0.4040264618875699,0.5256063967281933
2085901,-0.0036840187952440397,-0.0015142352175352182,-2.6825636573849485e-05,-1.5616832571286172,0.902298701187251,0.3630004599909849
2085923,-9.179694426199637e-06,0.0014265005991012623,-0.00017714486413691405,-2.0506027226317625,1.5166420254426556,0.2952925042679556
2085945,0.004058044683229575,0.007465529440990505,-0.0010092222275449013,-2.4964242658747233,1.8417551887562202,0.407683989047079
2085967,0.006013444096564257,0.013953027321381824,-0.0018905500358732705,-2.811814011720828,1.7511124543124197,0.5278130635738313
2085989,0.005772353105646259,0.016752412491572284,-0.0017451337835068202,-2.8566785656199105,1.5080462376344903,0.5417516300588021
2086011,0.005481139772578383,0.012910694266574525,-0.00044879063324700444,-2.519123478639436,1.4786752845334143,0.6029316333365412
2086033,0.007484496796835426,0.004840902141682826,2.9174696151187303e-05,-2.0715939500198273,1.6765548984652503,0.7879093105061337
2086055,0.012130895471705781,0.0030327873738274784,-0.003101957887122846,-2.3832457536316762,1.5760556449601058,0.5405401566666418
2086077,0.01684592742777081,0.02233391299320851,-0.010100522641583957,-4.364776928302493,0.48917041506222897,-1.1671820455499602
2086099,0.01767761845360103,0.07153579602919705,-0.01756319138464088,-7.76588354584327,-1.7042306807383976,-4.690176583999247
2086121,0.012980147407025008,0.14380473208179664,-0.02209516207701574,-10.484193573047886,-4.181249860844465,-8.71295104664485
2086143,0.005527964191909701,0.21646302912267124,-0.02404581606056039,-9.504110408769778,-5.7124330552224984,-10.824105850401855
2086165,-0.0003163539065419187,0.26139233529548567,-0.025428343043201632,-3.172040221141986,-5.725297545849611,-9.511716913137505
2086187,-0.003248662781825241,0.2601132053008826,-0.025216642242834708,6.942436752998104,-4.776948735340814,-5.679889878294048
2086209,-0.005262882215712933,0.2155649511825361,-0.020209813803202623,16.353182378878024,-3.9197785828442586,-2.056800156705233
2086231,-0.007756931849530383,0.1539126115540441,-0.01131820292113572,20.302381842898633,-3.7780068486643854,-1.0122989203073671
2086253,-0.009562721586086932,0.11238173427923251,-0.006061255501094535,17.03298881868377,-4.3808797372597805,-2.907837334798821
2086275,-0.00954006880234103,0.11559949462379344,-0.011733985224417855,9.320819424894587,-5.62466002355207,-6.348805872116937
2086297,-0.010238223298267807,0.1542161183615864,-0.025232337009979046,2.9672579176622365,-7.412640362351775,-9.631773302854608
2086319,-0.017315006087418677,0.1857665463528075,-0.0317110900149661,2.999636128140191,-9.167126425185893,-11.800715944369436
2086341,-0.03271762825260571,0.16490868063995365,-0.017395344632669934,10.09566925409115,-9.532982665590596,-12.66750676453265
2086363,-0.047564799210962426,0.08279748702418051,0.014070237879546778,20.043791041058956,-7.146674588102745,-12.298214209575798
2086385,-0.04556557584518387,-0.02010323446029324,0.040507731245632846,27.085958017618196,-2.1250480433403,-10.768807397157051
2086407,-0.01852807051109505,-0.08542479329795294,0.04074562280457822,28.621603938371443,3.24371779951339,-8.536424575424919
2086429,0.02109465268553347,-0.08867603802634678,0.016599209542430278,27.035730373811628,5.776626425519635,-6.743088807202824
2086451,0.0467764518234475,-0.06200793872545493,-0.00685474161860068,26.785685422108198,3.9152884963666694,-6.373952479296202
2086473,0.03988291573351783,-0.06179823943486906,-0.0051221966495695916,29.576310406185197,-0.8363382427254508,-6.803030446536474
2086495,0.00631908656137036,-0.11109456519106896,0.02145881970115447,32.61223950620931,-5.142569161187564,-5.967315177216324
2086517,-0.02745361051450138,-0.1772829668265956,0.04813819849843925,31.85054339791538,-6.680039182454052,-2.7733143429449925
2086539,-0.03635261590617923,-0.21054533286376842,0.05121444842811587,26.72335920224014,-5.892355929729708,1.1779238624773263
2086561,-0.01960434795674169,-0.20023594549601634,0.032853737442488685,20.926784244095373,-5.0888956312165945,3.2054446995201036
2086583,-0.003080817338849973,-0.18315217841285333,0.018345299873574035,18.27314981150633,-5.87723457245695,2.580912457132697
2086605,-0.01353165068249749,-0.19539300317465977,0.02763640948375694,18.55377854767866,-7.419269089410239,0.9944969389736462
2086627,-0.04821204813173855,-0.229824892981001,0.053235370054518116,18.360212258444488,-7.22707459435224,0.27474690729760304
2086649,-0.07558248206803281,-0.2507338710284283,0.07013150662202637,15.515919733901686,-3.7700209817460486,0.7653955161509047
2086671,-0.06943572717142046,-0.2409338561438494,0.06468212980806276,11.333095057305012,1.7464801328168904,1.8323837058308268
2086693,-0.03666340476799962,-0.21880809594740783,0.047245399002287275,8.140593495697193,6.304723244194912,2.610358814733792
2086715,-0.006140661239555447,-0.20895506588141577,0.03600330887918902,5.921239840356272,7.717354119297964,1.9301741633809604
2086737,0.004370645986919999,-0.21126857920582467,0.035713641423657724,2.8051453096350274,6.254467183536236,-1.0679687902704165
2086759,0.0016984447941291799,-0.2084197681298438,0.037581021759738216,-1.5014855303091306,3.8618267496437246,-5.279353253714822
2086781,0.0003225323145622937,-0.1949632215490623,0.03538845772859166,-4.500011895442766,2.21278410816216,-7.589716693195375
2086803,0.0034277919155322667,-0.18455819026318207,0.03320348716720633,-3.83064199097676,1.6385629956405163,-5.81067773803744
2086825,0.00515203733163142,-0.18788688390075478,0.03621736424063803,-0.3668269992733416,1.5035698506340462,-1.3627601027142175
2086847,0.0033042257950399046,-0.19558410094092016,0.04112625265493797,2.6517951116132576,1.101994036418742,2.0462585119802457
2086869,0.0013660382083846097,-0.18992125603149268,0.040327514948396925,3.156776156037636,0.1984271592991301,2.4222534375547684
2086891,0.00034755362462804423,-0.16768443181553727,0.032494069736964004,2.003231880225318,-0.8983159475526434,1.326794778285183
2086913,-0.0037677976345897343,-0.14410702896940528,0.02428351522954932,1.2872773600079286,-1.5767300295742537,1.611826318561329
2086935,-0.01325667986895052,-0.1355588174617991,0.022251030065555052,1.8404409230171255,-1.3913670014631627,4.1786230783085125
2086957,-0.024236770105287266,-0.14446130310071648,0.026732549829575892,2.8000038340485616,-0.465830259443539,7.500521999345477
2086979,-0.03126269896629744,-0.16168987922078149,0.03396411522821247,3.021139066710051,0.588230845202619,9.704829246207803
2087001,-0.03332860465350123,-0.17742559404896793,0.04074376148819692,2.1587897005781644,1.2087533941808566,10.234733219461875
2087023,-0.032760358849423674,-0.1857780543520211,0.04516633808896348,0.503036293428706,1.327082941359916,9.630337658504176
2087045,-0.03017893472179902,-0.1830392172717452,0.04519372247973536,-1.5112303139230554,1.2843452336236652,8.62645749612862
2087067,-0.024124190677194294,-0.16782742367928327,0.039639547626539935,-3.3562909376182986,1.371889936974357,7.814048789866208
2087089,-0.015635706546645877,-0.14381962136660692,0.030448616393579663,-4.4019168080338815,1.504809710577567,7.562465296539544
2087111,-0.009769376486787633,-0.11920014081196574,0.021864321760647443,-4.24900751444322,1.3363354145061312,7.700007859226435
2087133,-0.010659186537602748,-0.10208228714315712,0.01684881844769804,-3.0171376770990195,0.641178785663728,7.482500862176364
2087155,-0.016769823387815727,-0.09699032479849143,0.015516919771164914,-1.1725532043120535,-0.4420443882109504,6.366102416956032
2087177,-0.023007552020420655,-0.10452928239281926,0.017044062330045417,0.7876553735269292,-1.5208550556162532,4.8098788052764
2087199,-0.026868340057398646,-0.12165577960634447,0.02133192318726954,2.33732857428801,-2.2504032631176325,3.9342918560032696
2087221,-0.030658136170077146,-0.1414560502348713,0.02786580731404283,2.822986199226657,-2.4969097211930293,4.254525688004579
2087243,-0.03727939186226856,-0.15497234499014778,0.03411937021971719,1.7785672952807352,-2.2441370075297544,4.981804220229791
2087265,-0.04506578343361287,-0.1561167175958347,0.03662814129384064,-0.4710307362997006,-1.4788586856464097,4.770026045025376
2087287,-0.04780569865942089,-0.1455780386299406,0.03368992250358141,-2.6464058361026526,-0.31362568874320595,3.1582193652487542
2087309,-0.039688233316952794,-0.12918252256788476,0.026227511207013075,-3.1356709780024126,0.783309615308589,1.2722537890121446
2087331,-0.01966369018794631,-0.11248105385733592,0.01612701666318257,-0.9023520494272881,1.064537455756252,1.0953747448644937
2087353,0.008793965862262396,-0.09751504986393321,0.004647346562841198,4.008295132502844,0.031644161444665184,3.866845065254297
2087375,0.04100807272326108,-0.08379696812012728,-0.007502154122327031,10.545223691752179,-2.0230901493585085,8.916510673058223
