timestamp,ax,ay,az,gx,gy,gz
1994051,0.009417003338679826,-0.009015053148518843,0.0019426699550216897,0.04373546892839637,-0.5347688577576735,-1.0139429156879227
1994073,0.002998669031799502,0.0024104009444806595,-0.0032844258891399376,-0.38954624078037603,-0.5546768984971239,-1.3328784864555814
1994095,-0.000540766547539417,0.008294348146473047,-0.0068669379348564145,-0.4923734648439229,-0.4845448613269219,-1.2911719060404745
1994117,-0.0012480561598543288,0.008037493217728257,-0.0076217286149902,-0.24437648676545856,-0.3057511966563891,-0.7784251017614272
1994139,-0.0012946491991633815,0.0054599344082549624,-0.005395172841275514,0.11128779217145965,-0.03580086005914934,0.03328684467383058
1994161,-0.0020206556255133704,0.003688525917047338,-0.00123478735322048,0.35565930227973386,0.3092169900863927,0.8328997565251699
1994183,-0.0027765082612809145,0.0018010197267180998,0.0031276667676710377,0.4388206177614493,0.6350793313650449,1.3226896289065229
1994205,-0.0024217910518063825,-0.002538130798453407,0.006092882999708949,0.37086184168214065,0.7131173747896828,1.337388360236001
1994227,-0.0010103947738601513,-0.00796684897628159,0.0068132878330352635,0.11931662720464369,0.34976995575153574,0.931808431471227
1994249,0.00045954587131368554,-0.009132573863033969,0.005419728116967986,-0.29084108527546587,-0.3449120735220738,0.3514953376555455
1994271,0.0015631773046368182,-0.002515453431711783,0.0027627068436146176,-0.6454854382086627,-0.9682547170542388,-0.16228706894894318
1994293,0.002878535450828053,0.00870297698576278,-0.00021508731527594785,-0.6472758653706068,-1.21150093529237,-0.5862568162290491
1994315,0.004613132068831326,0.016865569909038976,-0.002949704830061003,-0.19416207006152444,-1.2024525454501713,-1.1037333117628259
1994337,0.005491260521024025,0.016475256105123293,-0.005107265042675508,0.5055505012620167,-1.3570299923201892,-1.8153525939450053
1994359,0.003697554288520275,0.008117799939942397,-0.006072781013894711,1.1144400288084944,-1.8729487109945568,-2.4708323166613915
1994381,-0.0011027822446561784,-0.0030695294340931487,-0.0049757125756884355,1.407480896340564,-2.457696401727563,-2.6138368807113617
1994403,-0.006760671157512885,-0.011529185201270074,-0.001728268980568194,1.3318381105539197,-2.616501284978451,-2.0957301210579864
1994425,-0.009546577098012371,-0.014390543588933715,0.001966262784778583,0.934597937964764,-2.180106083607339,-1.376653467927699
1994447,-0.006650412782335525,-0.012172226509965424,0.003409670062347197,0.32712228577560726,-1.510120887618877,-1.1571046250966865
1994469,0.0010610148735940032,-0.007613694350969401,0.001429459910910417,-0.30535098160638097,-1.1891352123296854,-1.6587784999289388
1994491,0.008580612243930733,-0.0038126570382558105,-0.0021152106845746723,-0.7594555468974381,-1.510565486007132,-2.361031897397805
1994513,0.010157317582477664,-0.002483112742057234,-0.0040616432167330276,-0.9434206947073496,-2.2400877003504505,-2.539924818643203
1994535,0.004154825983293316,-0.0028562951557753367,-0.0032653958652568804,-0.9397206185449853,-2.8432369126651187,-2.049633652826207
1994557,-0.005312339067354473,-0.0021866325727507856,-0.0016550385583029138,-0.8920052040708651,-2.9387490614505087,-1.4875464772532336
1994579,-0.011669957775082748,0.00158845802514499,-0.001803483046301066,-0.8157073835313701,-2.5592817063954345,-1.5519798405905887
1994601,-0.01108809489223958,0.00693488418257126,-0.003906733884576695,-0.5655632882337742,-2.0456880209319026,-2.281925036518624
1994623,-0.005214251297744279,0.009091362781849938,-0.005542142625100481,-0.04013457017919457,-1.7468777620196803,-2.9828054323968596
1994645,0.0007060170580341309,0.004525230246667073,-0.004358252244644495,0.5964645142093178,-1.7774337107237919,-2.9048062962787986
1994667,0.002724861055441906,-0.004692167738566276,-0.000826034233768653,0.9608110679385784,-1.9773147759562082,-1.9792988919255892
1994689,0.001432132832032086,-0.011589378272835859,0.0018230672154598774,0.7704670626353548,-2.1036368682233393,-0.8921955942899636
1994711,4.063426464402629e-05,-0.010025301481274616,0.0006131963846885613,0.15155220364929647,-2.0947511339707128,-0.437062845475648
1994733,-0.00013805347315708268,-0.0002389216479835078,-0.004074813497055537,-0.3565414170638509,-2.102959600801566,-0.7819109810726464
1994755,-0.0007932810817118469,0.010771165692338717,-0.008555496215070001,-0.15670872496552796,-2.2393142846005487,-1.355176593500437
1994777,-0.0032442609302895478,0.014389451187581389,-0.009163790194376176,0.9192346737417348,-2.3799520749160603,-1.4271485391323406
1994799,-0.0059861310723992,0.006875886342635346,-0.005400208062166486,2.3935072988513464,-2.302954616764881,-0.7694933609716903
1994821,-0.006605496747547291,-0.007904125968074757,0.00025170435896771325,3.439410249022268,-1.951972823152856,0.22331213881474507
1994843,-0.004799451394396268,-0.021427996953572923,0.004942136104545768,3.4825006597550763,-1.483693165180354,0.9271103439916245
1994865,-0.002271981741274976,-0.02650951212086041,0.007160388204099636,2.599150479410944,-1.0916430055701927,0.925769056534544
1994887,-0.00042687967244837597,-0.02181733245091107,0.0064626643288803395,1.4080530450763777,-0.8525882461284507,0.20794703578315063
1994909,0.0006742076255685913,-0.012216374785717769,0.0031547202674184448,0.5959120554729554,-0.7277310318689719,-0.8423987187312502
1994931,0.0014646597712432883,-0.005138655650517916,-0.0011822251801125862,0.45290349124214224,-0.653299522956269,-1.640724889832464
1994953,0.001974096078657793,-0.005226761752606147,-0.004029713878630166,0.7308157615617003,-0.6241353608371265,-1.7935690339414818
1994975,0.0016956376287637263,-0.010942191143725685,-0.0038631447578309206,0.9258360937802783,-0.7100223626697769,-1.4209452220760181
1994997,-0.00018309570832127553,-0.016462520909427614,-0.001464820436222216,0.7780313488517154,-0.9590570677054756,-1.0139738883400033
1995019,-0.004059434703029222,-0.017813528207150077,0.0011842084845244043,0.5076369376710388,-1.2446003995724375,-0.9187707054825035
1995041,-0.008643866731651049,-0.016983146166309058,0.002984588182802587,0.4648615492278567,-1.2602835157151364,-1.0661239401511367
1995063,-0.010726133891906952,-0.01887326528399112,0.004226270657915277,0.5423059110783052,-0.7859938333028665,-1.2582098689160255
1995085,-0.007706642338743525,-0.02384513674706269,0.005215379669355752,0.17131492608292415,-0.02033467663084093,-1.506328411482082
1995107,-0.0011877884978026172,-0.024545400841227055,0.0048853398459639975,-0.8160275458247404,0.4000849305564673,-1.8084066647156143
1995129,0.0031857470880435647,-0.012067043865196138,0.0010040641190701034,-1.394232691556584,-0.16569598473004224,-1.6477371541813672
1995151,0.0015716981335036464,0.014205166901080762,-0.008178595685103752,0.013779362019905535,-1.7535332931260366,-0.1835384871083498
1995173,-0.002039965513670926,0.04542843844148599,-0.022281598762817503,3.460911483163739,-3.4951046823553535,2.5674937742113517
1995195,0.0018001976468423491,0.07576732976249903,-0.03855098429817166,6.133126818917902,-4.004775454622442,4.773944210314926
1995217,0.01646955022815853,0.1152650155782638,-0.05341955933968774,4.213052937648345,-2.4175019781627998,3.6743382059437817
1995239,0.031047578377712416,0.18145045345969593,-0.06439939883671056,-2.6801688040737157,0.628931598065769,-1.8913435640162546
1995261,0.028920537656527363,0.26821636868815885,-0.06929156666841099,-9.099843202178823,3.1243987338205272,-9.774229401266584
1995283,0.006332871288586197,0.32613784939447144,-0.06241795730119008,-7.649984085876478,3.1434796760478685,-15.870908014697882
1995305,-0.02311827053702539,0.29305808772282305,-0.034795476540155974,3.078973449297269,0.39651758238644597,-17.848959651867457
1995327,-0.04366314982568541,0.16155418856341697,0.014683382807239397,14.866759263959246,-3.524228180366736,-17.899196842623077
1995349,-0.048765273289913806,0.010366841969302666,0.06626443553515404,16.212463470866734,-6.315423913212356,-21.293902366672857
1995371,-0.037468462679424684,-0.05325018601320952,0.08692560852532265,3.6117005496758456,-6.614981967971366,-30.960698344385563
1995393,-0.013888885786965994,0.007844762934578389,0.0606811796658149,-14.195851245874291,-4.947719237239717,-43.22785793852009
1995415,0.0059208547828407815,0.12872746085039535,0.008156111909278424,-24.202676817498734,-3.073031723936188,-50.547217355307914
1995437,0.002872837556857859,0.21048381644179087,-0.03224203794224726,-20.90576155615304,-2.207616486663797,-49.434649146361224
1995459,-0.020872179926888983,0.2057152207417849,-0.04103234383722031,-9.674887814327102,-2.081118883774199,-44.29482804136876
1995481,-0.038356432241463755,0.1352506699916774,-0.029466416949162536,0.12398942099031895,-1.9051985796849478,-42.126716639096195
1995503,-0.026975632698186695,0.04490452637527066,-0.018261227783949386,3.396676488933299,-1.7430626171855141,-44.832093006767074
1995525,0.007445350794600499,-0.034029939638921335,-0.014697191227308073,1.243191576676621,-2.292277738988459,-48.45553793379628
1995547,0.042364298921995946,-0.09027258574136324,-0.013079892914342637,-2.5631606618267693,-3.5940817015696096,-48.81997076741727
1995569,0.06448437198034224,-0.12169323689861714,-0.00908332300824653,-5.0769644067154385,-4.794054658359721,-45.392110973890325
1995591,0.07430203700390753,-0.12966938832347144,-0.005530462798858704,-5.015942082408337,-5.311999802983377,-39.81692926801512
1995613,0.07307747784839021,-0.11930466746934876,-0.005725004967710985,-2.249269798352867,-5.552934632941248,-33.45229144161661
1995635,0.05898366243107625,-0.09935776541054726,-0.007205661646235012,2.605802504871025,-6.115605533880855,-27.399262966327186
1995657,0.03509060634965379,-0.08228533814310213,-0.0037221661651871576,8.528350285079782,-6.767005839656255,-22.958221767523625
1995679,0.011470337583277609,-0.08292959023797415,0.008127131695847816,14.35546847456696,-6.6215572016185975,-20.565945155637543
1995701,-0.0022844614695055124,-0.10972953743400085,0.023866362655778007,18.69142223077266,-5.178565904181971,-19.102984922269194
1995723,-0.0031759793167474423,-0.15340552614602102,0.03260950082099248,20.200448191352283,-2.959917662478428,-16.961429135914543
1995745,0.004063625127558689,-0.189968841954439,0.026649183030729648,18.831325608098652,-1.1948127235871153,-13.197527949661186
1995767,0.008267400205086912,-0.20038327703148845,0.011210888661679963,16.384337097269434,-0.8864224103100763,-7.691461649462978
1995789,-0.001005841167072682,-0.18502611664277957,0.0008603030470329728,14.793085592488959,-1.959850215598419,-1.4220351031075436
1995811,-0.021260533994094843,-0.15755812626610882,0.0032174310609919153,13.929144588870138,-3.25141210511324,3.2681089165759687
1995833,-0.03544603340505706,-0.1315761736116829,0.010097518061476811,12.142567242898771,-3.5436902056018114,4.2319448680601495
1995855,-0.02957705140491673,-0.11733488119624871,0.009076810252342983,8.893868534681223,-2.6843538325236835,2.0830580979044018
1995877,-0.010122549959187599,-0.12227905524093904,0.000383867958210495,5.58222758252119,-1.5367493425194028,0.10767322664350512
1995899,0.0027973223300527157,-0.14368678222298834,-0.0036739965940061955,3.501540968923189,-0.8962561234633599,0.8321269497666134
1995921,-0.0009378990591194429,-0.16307573807542686,0.004821663754185584,2.1885160278389875,-0.7620558953967905,3.3776357092001787
1995943,-0.010650103305425457,-0.15796785003731525,0.019048009686426445,0.4702490355806741,-0.7046504487175733,4.817377709504211
1995965,-0.009495565022733356,-0.12299566511672202,0.02533235821581576,-1.6355367330160966,-0.6004984650965832,3.5666659888378023
1995987,0.00388029017747563,-0.07681474552239949,0.01859075092859196,-2.841400263610765,-0.7684735125670289,0.8143974288569594
1996009,0.011756926796155412,-0.047199844111354285,0.007511658071839782,-2.061951010804644,-1.5278161810449695,-1.0020219425470565
1996031,-0.004245979866654276,-0.04950541411041926,0.004444799850801798,0.6476765469293908,-2.8608581942578657,-0.4728193132395539
1996053,-0.04253882497914309,-0.07621561143727011,0.01157234299126798,4.426986750000908,-4.500604338952141,1.8693789271879155
