timestamp,ax,ay,az,gx,gy,gz
2015105,0.0007244150938028957,0.035736283031946266,0.00404564499207834,-0.3902912300754464,-3.1748245998115245,-1.2296868658351552
2015127,-0.0002796924086829908,0.009449592132700768,0.002155008191571039,1.6009618226206606,-1.6246569087736509,0.23943030327756737
2015149,-0.002178280821512335,-0.012145968681052144,0.0020488031516647043,2.514161854227104,-0.6751797266829577,0.5016932167055819
2015171,-0.003736744692728196,-0.02456811796374281,0.0032121236298165304,1.9622059573291226,-0.2671415840714504,-0.6181029861124276
2015193,-0.0024724483424559147,-0.025469929567001934,0.003437569114689515,0.42970989974552243,0.15280472356226477,-2.0390483047276353
2015215,0.0018437892053231955,-0.016563987829110855,0.0014234282428150595,-1.1463959245989137,0.8669499282606747,-2.3049743607378774
2015237,0.005602583369851375,-0.002891626138695665,-0.00187392242210563,-2.0143496539214665,1.5365547462907045,-0.9420479476854592
2015259,0.004968512356914556,0.009817057523194563,-0.00447039178355721,-1.9768969011482422,1.6859226966758447,1.0139245292114072
2015281,0.0009503746419333864,0.016870743767143908,-0.005274993680957303,-1.3076585492957404,1.282426505942073,2.0140691064696084
2015303,-0.0012408298787490966,0.015000883515721718,-0.004513091019602358,-0.43579811833184506,0.5881679196657578,1.552200140345463
2015325,0.0013291508267846248,0.0036074851413992496,-0.0028411373624776994,0.26155679496079,-0.40443756680935533,0.5440130748951924
2015347,0.00544737236267317,-0.012797701448031376,-0.0007473423355191924,0.49065359919027035,-1.9553382729629827,0.15046673321199694
2015369,0.005873225452279338,-0.024896781788609993,0.001286016944163764,0.11035774114486802,-3.871346000846992,0.5817062795616867
2015391,0.0018271552410694934,-0.02484153354753525,0.0026722398007837534,-0.6996333497341198,-5.236812473810524,1.306225429199735
2015413,-0.0028960214484756042,-0.013807401937314747,0.0029025608299560355,-1.478449349387415,-5.291344087777161,2.0729859360341503
2015435,-0.005869127579261677,-0.0013634024878418066,0.0014994397293904898,-1.8986330772371465,-4.451572787497015,3.1303284111937257
2015457,-0.009307722937748382,0.004307116180783589,-0.001915797409390929,-2.1069481340448655,-3.970658466921275,4.438983693308719
2015479,-0.015832466603082695,0.0039544794325074364,-0.006680287431186871,-2.4760066618743233,-4.457441920321118,5.289895954832148
2015501,-0.022943559832323088,0.0038358068397509808,-0.010343578051683627,-3.0575596976510178,-5.15287416413156,5.079657656655613
2015523,-0.02510652340345425,0.007508823639040444,-0.010093096463450274,-3.5047245751455045,-4.978280157185493,4.149678104138581
2015545,-0.021574005502135278,0.013730472538893163,-0.005601049785035315,-3.536535413591465,-3.968887733440056,3.412474596566779
2015567,-0.01857919108559833,0.020037276123812207,6.151957486485624e-05,-3.213898909181933,-3.1549455191800124,3.2221998736140383
2015589,-0.021358718305437386,0.02420465948855336,0.0029104525398114763,-2.675779146723504,-3.1202323579872497,3.0137480162217924
2015611,-0.026447202968402424,0.022973778471228713,0.0014497482657771742,-1.900182607764242,-3.2988553734323025,2.1434427992436023
2015633,-0.025776824275842262,0.013991024693413694,-0.0022956027522441622,-0.9697078773613828,-2.9457573312883767,0.7703895196522298
2015655,-0.017960005518505323,0.0007167716238758469,-0.004711629936540766,-0.3796813224889229,-2.314840924045171,-0.29095968663952293
2015677,-0.011513777062309263,-0.0072863462771212235,-0.0035918514354427917,-0.715428583542455,-2.3734308551894903,-0.42471948564370965
2015699,-0.015281752066416028,-0.0015073737645486028,6.449004883646157e-05,-1.9385213732567106,-3.4879366930013136,0.24985417952295633
2015721,-0.027809300160557493,0.017690827039407768,0.0027337907452826037,-3.166955690116167,-4.823325930219469,1.1167584086841391
2015743,-0.03805398775587858,0.040349831622881985,0.0011506153388767379,-3.3174344722530327,-5.157329092737823,1.7280239661956125
2015765,-0.03625819562058221,0.0542506478909277,-0.00496868065357494,-2.083657235713827,-4.141444015959963,2.1741700927050407
2015787,-0.02363800558204473,0.055025705844799815,-0.012460637061638044,-0.4252258399368719,-2.714757730675037,2.62303991973788
2015809,-0.011911390186475211,0.05130136448880571,-0.01663577283960536,-0.057118826070198345,-2.324950346075875,2.440992505823799
2015831,-0.013339690130834057,0.05922482479460761,-0.014399354877037892,-2.0703172218933323,-3.652367602769796,0.27596973825664156
2015853,-0.02986445457560196,0.08844965223850973,-0.007343099390663282,-5.607240301217447,-5.920810527778179,-4.313571877584929
2015875,-0.051227385926754306,0.13028035640336114,-0.0019655182509809243,-7.903292409920598,-7.471951095659015,-9.4022496538291
2015897,-0.06462441390634122,0.15938894771512704,-0.004089659364310683,-6.220200348027727,-7.207771878762638,-11.713812423068413
2015919,-0.06608649779759872,0.15099629061515032,-0.011611905104778048,-0.4440227407627456,-5.542930198531796,-9.697999208714757
2015941,-0.06112655445220051,0.10223800766257943,-0.015207019250352172,6.000736246508751,-3.9012378726739483,-5.477836915375519
2015963,-0.05633686095034653,0.03985275095807226,-0.007844839468605253,8.23597701051979,-3.3623192062075193,-3.3535790837031376
2015985,-0.05419497585871424,0.004869275715717799,0.008025105847918651,3.686380816323418,-3.8508434650350765,-6.1458497733079955
2016007,-0.05420778441448662,0.024362191923140528,0.022970890135825355,-5.537781546947267,-4.42960259122684,-12.864392872186805
2016029,-0.053959664575012035,0.09189018229760554,0.02807447797454658,-13.670362544142893,-4.211649407925773,-19.724852510094326
2016051,-0.049696556435565475,0.17110191191059287,0.02044616499735435,-15.053972640360215,-3.1326171156529456,-23.23606948287586
2016073,-0.040516270292124436,0.21975203163981008,0.004719355114006257,-7.937690732893413,-1.9916861190672233,-22.5474942985568
2016095,-0.03219805879940609,0.2170207298462709,-0.009556528023364149,4.382104532564368,-1.6925561544584373,-19.605684648783942
2016117,-0.033123219062776696,0.17434059897756732,-0.01414938436802513,15.865501708382341,-2.3878973973970474,-17.662657178965073
2016139,-0.04479672885580918,0.12237249740802533,-0.008255535020805943,21.771469702557503,-3.3627116326077076,-19.25360040040549
2016161,-0.05823440969150533,0.08557892142046071,0.0011921653580768536,21.53305595239593,-3.6840284197932203,-24.545469364799505
2016183,-0.061645004803465187,0.06507940683424435,0.006178304820402271,18.479135504822235,-2.917360415553913,-31.0782141437177
2016205,-0.05170616918971238,0.04329115288375749,0.004956483465357473,16.653690273945188,-1.3617918012187866,-35.542326323827346
2016227,-0.03673859542626007,0.005973753002076611,0.002458698025024807,17.23652597482015,0.17091288348202677,-36.47741352762279
2016249,-0.028993760678955923,-0.03910481088781496,0.003393774501711384,17.778397265046998,0.7929659775450716,-35.376727238525106
2016271,-0.03360470020241804,-0.06770086226756351,0.005827767009804879,15.239070061515948,0.06013958687777545,-34.9290121896095
2016293,-0.04395506447055413,-0.06678876378350133,0.002733461306960483,9.860496541404203,-1.6687968308714316,-36.102475967823004
2016315,-0.04799660994788854,-0.05501850064068071,-0.009797682259334495,5.459015172067302,-3.4657794402961137,-37.124687152268855
2016337,-0.04094453626356198,-0.06839269425946842,-0.026461555069451078,5.356476855917526,-4.646793704245116,-35.503451803569575
2016359,-0.031885467282990215,-0.12082878279874605,-0.035637967160704526,8.339619169009827,-5.3403446281191,-31.044233618866684
2016381,-0.03529469326634128,-0.18163916420953724,-0.029220943244241033,9.440105158437776,-6.116668375932944,-26.62739783123541
2016403,-0.05531359817116074,-0.19886043610329898,-0.00992169051353017,5.062721549494997,-7.1502856065848235,-25.578228654894414
2016425,-0.08122207774478277,-0.14936964072925868,0.011683017099777242,-2.9699907465308666,-7.941178645951677,-28.07744358537619
2016447,-0.09904262912238129,-0.06476239353552907,0.026873827308095684,-8.923062653389255,-7.78939397520609,-30.650782218553882
2016469,-0.10354420749441999,-0.0038213561583862322,0.03370059274041114,-8.717203864791605,-6.347855951812734,-29.798546148139234
2016491,-0.09719784586444155,0.0006488679559752022,0.03297965918317159,-3.590412968738672,-3.8025729074600485,-25.801531723171102
2016513,-0.0827323419931262,-0.03478383847730203,0.024278324623539644,1.8744240745567726,-0.8210861499588906,-22.126016015077997
2016535,-0.06216482450463624,-0.06998977997302847,0.008964125785247587,4.597793500659437,1.617357040105662,-21.251917139216268
2016557,-0.041207733039606564,-0.08194353975255245,-0.005805245629387104,5.1845957761580745,2.645247620190374,-22.124050447490003
2016579,-0.029008875626026387,-0.07858487055052946,-0.010925880785371225,5.867236558568272,2.0597492992710493,-21.89350890813635
2016601,-0.03159008496016167,-0.08146032397598549,-0.004098545737967471,7.573039307845523,0.5170520543718773,-19.18391039336611
2016623,-0.04690668062310267,-0.10261933138546758,0.00714341608320407,9.373509966755813,-0.8807510305007614,-15.054965263739621
2016645,-0.06672416647193607,-0.13582120938330153,0.012002868168146818,9.944850744299293,-1.2975635200930002,-11.333587615067191
2016667,-0.08235682509489524,-0.16148733213139993,0.005359868006278454,8.775105989003208,-0.65723177800616,-8.810992455316885
2016689,-0.0887898089660779,-0.15847761023169407,-0.009513734043462296,6.227677470949287,0.3861810380857647,-7.132086179189187
2016711,-0.08556530819254785,-0.12015331472067238,-0.024800408020128666,3.246182865381631,0.9569283029867788,-5.812483973995718
2016733,-0.0761295611705172,-0.06541381030572134,-0.033184652765681985,1.1104391581125634,0.5879730551474505,-4.79283626486646
2016755,-0.06632288998968314,-0.02819177106035673,-0.031075506852832262,0.762590832454774,-0.4954895062056711,-4.061400306064204
2016777,-0.061544931813648035,-0.028714544664321835,-0.01992536590534581,1.9247321391046806,-1.6443292413622324,-3.2393048419482704
2016799,-0.06388412703674629,-0.055988566384736954,-0.005139276010914483,3.151926479177224,-2.3162077644610255,-1.8982903670746754
2016821,-0.07134134668937019,-0.08032154230321645,0.007152935775840637,3.0476459640750537,-2.3774925481190303,-0.2288373689863652
2016843,-0.079355054662183,-0.08026437812315206,0.013066081976721666,1.4167477481329465,-2.0120234881501027,0.9133653480672275
2016865,-0.08353580411413054,-0.0573249250018101,0.012086090353813018,-0.7007356984765708,-1.482036685185121,0.8298606762388397
2016887,-0.08251026340312659,-0.030305214705867296,0.006853223199452817,-1.9487606559764707,-1.0014456262403741,-0.24054925783843903
2016909,-0.07895532236079003,-0.018957803275066333,0.0017311317800494251,-1.7084903001702711,-0.7217038406109639,-1.3497241423587645
2016931,-0.07710877816330244,-0.02956458870219641,-0.00013781324945637003,-0.5588487270740048,-0.703738748540889,-1.8074638677473622
2016953,-0.0786374027099211,-0.05126734546373063,0.0006767254524195079,0.22208689311105845,-0.8672841634835636,-1.7057886856832758
2016975,-0.08137598071039297,-0.06574602900181307,0.0008676379073477996,-0.1981258533950958,-1.0269583618672182,-1.4652854115686094
2016997,-0.08221613589802346,-0.06253622184413304,-0.0017951911001714543,-1.4536301630489643,-1.0383096276589487,-1.1560675947095036
2017019,-0.08045019154327705,-0.046336345998800356,-0.006068210398611891,-2.4212720316005876,-0.9097332268855889,-0.5070396840893387
2017041,-0.0780129475954265,-0.030784493625496682,-0.008651066574092413,-2.3753558606489054,-0.748397442329746,0.5323011589260835
2017063,-0.07716778174446105,-0.026821230875671506,-0.007256020502627034,-1.578772642249277,-0.6131209765790928,1.5276839132087658
2017085,-0.07857951492062575,-0.036515413541134994,-0.0020186461479851647,-0.7633759973888485,-0.4690424429077057,1.9685960831681206
2017107,-0.08136503661277045,-0.05455193941323761,0.005310922273497324,-0.24597571326867335,-0.28584239172203324,1.8470028997823784
