timestamp,ax,ay,az,gx,gy,gz
2078355,0.005173387564081262,0.011427862379076498,-0.006392967843512585,-0.7598890696315292,0.20771575285655963,-1.1182967789924403
2078377,0.0018650374871511076,0.004930458012448326,0.0018904498083451246,-0.25839373222189543,0.23550244139503945,-0.6136453407423994
2078399,0.00017707849427166995,-0.0002461547598398828,0.005996336114931168,0.14122300701902893,0.21615646029559996,-0.25736916925188796
2078421,0.0005033164831542808,-0.003742729284016775,0.005017223377733978,0.3918175628092398,0.14296820153731907,0.012127939739172165
2078443,0.0018070261376671145,-0.00584328315287185,0.00147630585715151,0.4877301799356473,0.055121793464990354,0.3575179054858495
2078465,0.0024778009640736543,-0.006435994873693798,-0.001453771821153712,0.42179833179280485,-0.007990491590257522,0.7444901306625202
2078487,0.0014978348995734977,-0.004906082182904589,-0.0025601239455195855,0.20338396742240145,-0.05849250784107423,0.8836217864986615
2078509,-0.000835325324086165,-0.0012845161506011193,-0.0025748751201919535,-0.0722424508225388,-0.13978128756567063,0.5601902417370397
2078531,-0.0031039488205880945,0.002759386694736415,-0.002298799875643439,-0.22508485357059485,-0.24436466581895902,-0.03052896000925525
2078553,-0.003892638773347015,0.004624854694727002,-0.0014804185789355625,-0.1277711233238968,-0.28397158713927584,-0.3919736273244132
2078575,-0.00299351039113263,0.0029026165187281566,0.0003928600316747068,0.15193409742984973,-0.17156226387856147,-0.19558163125808084
2078597,-0.0015475054226145662,-0.001365289794947114,0.0028405267417084623,0.3931929250154569,0.07183421889058275,0.4195280582361206
2078619,-0.0009473172335984275,-0.005884747733548989,0.004536164404023133,0.41637917371940897,0.3078435476724084,1.0208197247297575
2078641,-0.0015021534683965017,-0.00915409927999431,0.004641646660650657,0.19337933640280477,0.3874495286624122,1.2757845573238262
2078663,-0.002149411520537048,-0.010516178197003127,0.0035224003495905433,-0.22233452370885837,0.2767388731303513,1.155770325387532
2078685,-0.0017193378036026114,-0.008663087918970512,0.002078996724747895,-0.7643824789917252,0.08553182482901615,0.8689964162092881
2078707,-0.0005519544886661609,-0.002174169588566797,0.0008853305483571721,-1.2749740675312913,-0.019043036489900578,0.6972809222324667
2078729,-0.00026328561299478247,0.007114253101039146,0.0002278263860383921,-1.4473578083399996,0.08339816044304994,0.8378854184676711
2078751,-0.0013626525055720714,0.012925605068724342,0.00037743725889867756,-1.0400890896319595,0.4249150828295901,1.2569122084544517
2078773,-0.0017754055308609813,0.010091123483290233,0.0010980964533599052,-0.25335248828900936,0.9250066367501474,1.642196843796605
2078795,0.000748199116681156,0.0026300890502054274,0.0011067376743380058,0.1965456254028896,1.3305833840893437,1.5617240297130979
2078817,0.004505141004988725,0.004211838714417752,-0.0012382291894742535,-0.40531472900225607,1.2373634556716042,0.7358099693810338
2078839,0.0042653218228124925,0.027487665536646548,-0.006712852958148019,-1.9652667779583928,0.3504011518256475,-0.7956872540056972
2078861,-0.0018802887919415422,0.07115417825428767,-0.015111307245107586,-3.188450479177786,-1.159764152857654,-2.65885346484102
2078883,-0.006981124927032458,0.11678355855782466,-0.025527705317966175,-2.1256805246286024,-2.645153019389325,-4.17233911386038
2078905,-0.0005441341644752503,0.13907659002698045,-0.03501704644511129,2.4274939853501385,-3.5339694377025848,-4.497705007791246
2078927,0.017609974325605883,0.12365383467810197,-0.03742179794587959,9.478174342765048,-3.999216856749401,-3.190411846976036
2078949,0.030956177252023872,0.08130456452397994,-0.027308476190995103,15.622158974963945,-4.919888450379963,-0.989312852884762
2078971,0.01952358244774028,0.04581117427380349,-0.007791848733947715,16.986214434840317,-6.93731203235369,0.11830212064885483
2078993,-0.018057977179910017,0.050296527466026475,0.008202144073337088,12.446954344729763,-9.548420966579608,-1.6503552722720507
2079015,-0.05936728326841126,0.09791789503126118,0.00895407098048208,5.299719798565267,-11.33465289118706,-5.838963336399345
2079037,-0.07783439084394553,0.15502939155556697,-0.003691258636965605,1.2328641418292126,-11.177002663615376,-9.499670256387857
2079059,-0.0656888287447977,0.17581830829210318,-0.015542240100829222,3.9833709875591117,-9.235274107943148,-9.725820916396795
2079081,-0.03748354404946815,0.13603408855760035,-0.013292195004614586,12.482996593032313,-6.841546551127245,-6.688500463539677
2079103,-0.015709463055318944,0.048078353737412066,0.004701541082238158,21.76294038191665,-5.4773063472448635,-3.7554856045624465
2079125,-0.013562569953782352,-0.049092114117288824,0.02789604521372961,26.53197531241637,-5.59158968615743,-4.229463581703798
2079147,-0.02571337097998235,-0.11424449950278882,0.04031349752312754,24.69530340672931,-6.220570077859298,-8.007728215531317
2079169,-0.03403056473955753,-0.1287679428712202,0.031126340228975577,18.561131884361497,-5.969856185897099,-11.554484035534559
2079191,-0.027451203611266132,-0.10854728593615247,0.00529021416966188,12.880218507283642,-4.529119941344811,-11.124027627797785
2079213,-0.01648069453862828,-0.09013312452095665,-0.01652223953966342,10.930172813483043,-2.9833133194745485,-6.181845357523419
2079235,-0.021220657075448558,-0.09617136842185459,-0.01544069932453458,11.935984416082208,-2.530070598382134,0.0778036036906497
2079257,-0.04469196069328528,-0.11303041188625329,0.005935581292744508,12.626420215230477,-3.2644033686462524,3.8235958317234955
2079279,-0.06745565209506789,-0.1102725673160776,0.026637857274640808,11.481588369230204,-4.416938254556493,4.604898967850703
2079301,-0.07220532163106118,-0.08251822539049322,0.03178747869386366,10.576645196278303,-5.303914477573718,5.974310204872749
2079323,-0.0639153374027744,-0.05939662311575107,0.02726260409147812,12.553620570861213,-5.580351158487361,11.517779009860561
2079345,-0.05830835694957557,-0.06754515545806498,0.02640565533989916,16.758343898388944,-4.929347773028905,20.61157444857828
2079367,-0.0584818899578443,-0.09498888055544547,0.02990397099916902,19.877412789646527,-3.257157864350433,28.87881260863353
2079389,-0.05404641243179991,-0.10684363760075392,0.02740827622379934,20.221560891794987,-1.2975018336846529,32.586771246566684
2079411,-0.04056538529072724,-0.09197607255134828,0.016043049941651233,19.875487811943227,-0.419954385718884,31.817009196121486
2079433,-0.02936742286307183,-0.08054349999568779,0.008227437608865289,21.947931166713605,-1.393526324754914,29.53937058740058
2079455,-0.03626343902426334,-0.11115455154484497,0.018701763295036263,26.386392827646542,-3.4690637262854818,28.376890419753742
2079477,-0.06608227727305181,-0.1860523991064484,0.04795152737997599,29.241298110804248,-4.935522092598627,28.11124700061337
2079499,-0.10806987068272288,-0.26353628132800183,0.08028904792161691,26.194458306428345,-4.526035435928889,25.58483221373542
2079521,-0.14008166574309142,-0.2958558192934938,0.09586642827515421,16.849041610316764,-2.198947091269146,17.307453723521217
2079543,-0.13848024361707886,-0.27411347203510067,0.08454469387586426,5.690646243062188,1.090045645849778,3.31939290147287
2079565,-0.0965608234094463,-0.23519380370748735,0.053378238045791795,-1.295023520102415,3.887155556087106,-11.235126437310033
2079587,-0.04016560941371562,-0.225253018537214,0.024022450975548816,-1.4709535027163452,4.7838782166130605,-19.476755808383565
2079609,-0.013666178949557517,-0.25715139292929373,0.017637422372900665,2.3773421383508277,3.401975694299506,-18.793179345648777
2079631,-0.03688723986934922,-0.30168840597621993,0.03545849305133114,4.630144700647839,1.141159872466617,-13.350688043446667
2079653,-0.08055285892374758,-0.3178137774271568,0.056016224682251176,1.8618671590907685,0.21097818511057786,-9.909550406635173
2079675,-0.09646522451322948,-0.29108669921100716,0.05713458444373624,-4.280894680694264,1.4120350604339964,-11.139066819378964
2079697,-0.06932035135517915,-0.24339362283028987,0.03917906435500443,-9.089705877310884,3.298806478961584,-13.754064975876544
2079719,-0.027785121801032053,-0.2066957154954912,0.021592961735059153,-9.519463295390716,3.8782634019186943,-13.148748985142996
2079741,-0.007167149005898684,-0.19156351843684896,0.018867364845711925,-6.608221836143195,2.6924764489849546,-8.540110116204373
2079763,-0.014889693031969088,-0.1841899360841818,0.026977402400361252,-3.471498567677484,0.8658983857164746,-2.8515324071779027
2079785,-0.03495968988550353,-0.16894423130858055,0.033279659435204244,-1.9215812368428504,-0.42345715058117417,1.170768251020055
2079807,-0.052616271218434194,-0.14537932171312676,0.031935942927838364,-1.5766170633087606,-0.9073293733435546,3.150960671850656
2079829,-0.06454177195743932,-0.12341745524428457,0.02603124638454364,-1.420474874173386,-0.8579947200971286,3.911098058499639
2079851,-0.07120957129401512,-0.11062564366686495,0.01992937682610781,-1.08675234060826,-0.44185680849273096,3.8872545500361917
2079873,-0.070967963280467,-0.10857148053319848,0.015219937933834726,-0.6592203486360242,0.28380074257143423,3.2520216506575546
2079895,-0.06386055314398985,-0.1162721181745858,0.012779144197197407,-0.12840577463953984,1.0496864723099664,2.539514716321376
2079917,-0.055121729985920014,-0.1311251220662477,0.014075968834328947,0.526949158649683,1.4326871729906097,2.275418816513737
2079939,-0.05083310652832988,-0.1474699085518859,0.01902842085926154,1.0927983733338824,1.283629151604954,2.305307752548677
2079961,-0.05169584790598922,-0.15851250383780655,0.024656092089601282,1.3089624305713037,0.9213394303480552,2.093077049840968
2079983,-0.053448875619720906,-0.16083601247445167,0.027448582496331336,1.1949084543336481,0.7917848515483998,1.573784738446978
2080005,-0.05266924566543645,-0.15598716036165206,0.026578677741206803,0.9997742512805953,0.9937621498880649,1.2421593068909489
2080027,-0.05021186207065046,-0.14820334528044907,0.02406490270269093,0.9078361212701097,1.238576598419721,1.436158611759781
2080049,-0.049210246501758606,-0.14204607195739755,0.02237964849777316,0.9333915791558589,1.2622747476853011,1.9872135595307905
2080071,-0.051502296908744805,-0.14134404208465845,0.022695775861062847,1.0267919048300427,1.1676292528960754,2.652988455425434
2080093,-0.05632747290850329,-0.14739388143818094,0.0248415044382741,1.1087973974283893,1.2916666637262741,3.4604654689051273
2080115,-0.06102997767344875,-0.1565859767130537,0.02759923808632188,1.0132595059862501,1.7778151369064534,4.358307522168032
2080137,-0.06218527719709916,-0.16132934850607533,0.028826699833043853,0.5812971283893742,2.358551097753222,4.819710767412893
2080159,-0.05728623468222579,-0.15592004196540524,0.026535496217969592,-0.08336434440340561,2.5753178764108946,4.238250833705515
2080181,-0.04731750039779445,-0.1425111210380493,0.02104046832804878,-0.5432767660228959,2.166689582633212,2.7790555015845206
2080203,-0.037844403752914424,-0.13029056579211049,0.015742265437177556,-0.37068459357299444,1.235307066428361,1.4717780780404426
2080225,-0.03546901881294092,-0.12742506650657373,0.014473606075104775,0.3816581075210711,0.12241274856589973,1.1570304474382662
2080247,-0.04157213757308131,-0.13374290076250453,0.017615145755377017,1.136237176440725,-0.8023094852112276,1.5106064870339202
2080269,-0.05042669907512249,-0.1420423302468387,0.02172995806902451,1.3141255584954026,-1.3010464138535784,1.477560439375996
2080291,-0.05495089316541213,-0.14627579601519614,0.023564627622972553,0.8979240338835183,-1.3956420887509087,0.6519428419452465
2080313,-0.05368217098793715,-0.14709740771442015,0.023533202790313897,0.42329529199807236,-1.3909862399745476,-0.14805336254023302
2080335,-0.050521835755121425,-0.14903720403759316,0.024397433594914312,0.42115336473037784,-1.6435243961072967,0.16163483670439283
2080357,-0.04842205158799151,-0.1538723448368141,0.027209056997677963,0.9040113742768907,-2.205808901749433,1.6159468274963118
