timestamp,ax,ay,az,gx,gy,gz
2495409,-0.0171838972357057,-0.012307106101748035,0.015255978489608735,-1.1732139779355923,0.01841820574293302,0.70967107529704
2495431,0.0006941483209281117,-0.0015548474734233646,0.004637163922878938,-0.4377454918702999,0.4816382783009291,-0.005505183799422379
2495453,0.010491062096119006,0.004905529940072592,-0.0022392067725755553,0.13448188543377088,0.5388054827009487,-0.46654095247224786
2495475,0.009663460427279008,0.006210750822963487,-0.004224089036701126,0.4389429315555753,0.1736043560810813,-0.5195403643384326
2495497,0.0022939309982384264,0.004568685710440162,-0.0028528529265026046,0.49260052985767216,-0.26215700532997577,-0.22135495946027506
2495519,-0.004658573762632824,0.0022612373278943216,-0.0006038391188949882,0.4281503295822568,-0.417163415921539,0.12014267835794976
2495541,-0.006564607352539933,-7.186079048081913e-05,0.0007048286767483465,0.3643536052350831,-0.25943871419490416,0.1087943118163402
2495563,-0.0037078878932460943,-0.002410617627203062,0.0003669409473644535,0.26654046856830665,-0.049408721281523155,-0.3268323085091037
2495585,0.00038699328409472905,-0.0037784778116460474,-0.001407009350465631,-0.01736821698475905,-0.06842710548361913,-0.580120651514677
2495607,0.0028889665213709522,-0.0027159320883617705,-0.003686877209755877,-0.5427869746043203,-0.41571384764594105,0.3762691326417593
2495629,0.0038188022603928527,0.0007499542482521326,-0.005303745989832065,-1.13808556410515,-1.033362392036994,2.988816706208224
2495651,0.004273776894423949,0.0045879832854333015,-0.006332429829129874,-1.6031757567717544,-1.8447840158171087,6.164297386112536
2495673,0.003122161658605904,0.006554248403757464,-0.010159840686079915,-2.1003523239663924,-2.783843906098507,7.538677357257285
2495695,-0.0030509596295775036,0.0057067855251099805,-0.023875502465175436,-3.2301503949588017,-3.6328876734538964,5.226691633971103
2495717,-0.015062095662137719,0.0017444961346912125,-0.054811169860917115,-5.435486344280107,-3.897180489436657,-0.30268733856213637
2495739,-0.025924562770382364,-0.006200759736267966,-0.10430772836537472,-8.163591832636186,-3.1353529884201445,-6.122513849357338
2495761,-0.02311052051822163,-0.01884121906047546,-0.16325740001025413,-9.902739781374683,-1.792970908289671,-9.002704612945582
2495783,-0.0007471379056530607,-0.0340343538794619,-0.21373579286033104,-9.59390178795879,-1.6922169332793842,-8.076408879328955
2495805,0.02795333869545255,-0.04441597824007837,-0.23714782116020883,-8.083671577898958,-5.019879936659584,-5.427982498644093
2495827,0.03438744168193376,-0.03872693965951908,-0.22470006161726955,-7.563916064819106,-12.014898285268272,-3.825187693756535
2495849,-0.001690269908875348,-0.008907293828896545,-0.18323695217699587,-9.10076949241107,-19.56538602174228,-3.8827454087036046
2495871,-0.0685653481706624,0.04032238041495478,-0.13130478057780215,-11.053719266879343,-22.84739917989572,-3.782475294049854
2495893,-0.12586407130336444,0.0877717743853941,-0.0876816332327445,-10.486113696577021,-19.209724679143182,-1.7680768992378066
2495915,-0.13655046064016998,0.10426453095689041,-0.06133244993432903,-6.1811892094304985,-10.779189632908349,1.6743095640903358
2495937,-0.09857471427293028,0.07160901563806368,-0.04989316987868935,-0.170541318778466,-3.0701432712572654,4.406331240744345
2495959,-0.04570409293830108,0.0011522860373799752,-0.045518374219453026,3.5539131184788237,-0.6468875453534474,4.807450370465117
2495981,-0.017471764841588303,-0.06588931757306946,-0.041508425978002875,1.9646607177738207,-3.7408065438680422,2.7709983295886413
2496003,-0.027792362547887407,-0.08615461244139447,-0.034654739416971544,-4.635572418717124,-8.721128244198432,-0.8898282995980415
2496025,-0.059557080897884584,-0.050978428288023535,-0.02364971882428068,-12.636492657077255,-11.557924852012459,-4.869104956304172
2496047,-0.08429378143938329,0.00582126818442663,-0.007827392911288577,-17.843760498330496,-10.90604467473559,-7.265773564258496
2496069,-0.08550869344917246,0.04192108878541991,0.011296942119978025,-18.85643550170646,-8.482813285712748,-6.5935482908092755
2496091,-0.0687142463605955,0.047242007040158955,0.02872031599769279,-17.89957172814041,-7.133177612089122,-3.813375726728386
2496113,-0.05501020630872761,0.04760107514547768,0.03877590735601654,-18.091212113249163,-8.427042875888386,-2.3685865119668805
2496135,-0.06302115672829114,0.070780410062105,0.03979703555926448,-19.997549046792194,-11.429592297196201,-4.936199275324491
2496157,-0.09055822828542938,0.11514630430641735,0.03472158188743005,-21.255101142017928,-13.496710527801582,-10.381526558055624
2496179,-0.11320541529415948,0.15250471962501366,0.027149864529469485,-19.506670895552347,-12.685462117832095,-14.741104998384367
2496201,-0.10650096645864744,0.15782281479542049,0.018365003114060436,-15.15277858281193,-9.779452814852451,-15.056109712058385
2496223,-0.07204284929335217,0.13423379651130607,0.008321089755118949,-10.884434753225387,-7.745794272042046,-11.674770922924973
2496245,-0.038243897171784315,0.10945264236905601,-0.002251788779978633,-8.730909467779123,-8.846011981570978,-7.0971733287936924
2496267,-0.03323490343155028,0.10712753547313641,-0.011614345364648278,-8.016852046617203,-12.382759132087994,-3.438316724099563
2496289,-0.05958289985002265,0.12213616483410238,-0.018005898129985917,-6.463633736643429,-15.559003930872128,-1.242949463140373
2496311,-0.09637985450452453,0.12791848796282362,-0.020512750504597707,-3.0893035566562723,-16.352195168025297,-0.030088323725559793
2496333,-0.12166492180938397,0.10908202802890177,-0.019685178780482364,0.4855081847084636,-15.121680479357154,0.9051782248716412
2496355,-0.12974027047741368,0.07985297421785723,-0.01711203344239363,1.7991937108492357,-13.559457745057914,2.342599497005226
2496377,-0.13001584469236624,0.06545506430966647,-0.013421793633166344,0.16219302547840242,-12.744808002383255,5.020602795874602
2496399,-0.13426923034484256,0.07243068599227216,-0.007150617982176329,-2.9487709745306234,-12.484790305394295,8.88761632194773
2496421,-0.1461527598949355,0.0862405539252077,0.003197766811117675,-5.775068335770588,-12.05524485055068,12.48810653955205
2496443,-0.16055733644062353,0.09373713960241721,0.016434397471908186,-7.779736044656962,-11.002355873179042,13.731931986981404
2496465,-0.17010821508123172,0.09705685956691565,0.029283371386874202,-9.19977286275287,-9.191810890522923,11.718977778488012
2496487,-0.17020308197714418,0.10478108131048924,0.03923026891665945,-9.941884773748294,-6.525958773325282,7.718265470302416
2496509,-0.1586461391481814,0.1182939303054204,0.045664484358798454,-9.597967817449327,-3.1033368770800847,4.108129072568528
2496531,-0.13539784668787502,0.13124315925032198,0.04910173464056138,-8.312322501348062,0.2097073244618957,2.317442152927289
2496553,-0.10699318285367473,0.1388451919329107,0.050907154905514666,-7.017741125586696,1.7647829766851322,1.8549019771125275
2496575,-0.08839925433665144,0.14422665057649395,0.05302710049792346,-6.6292258555139005,0.3427658897253485,1.2446230857827734
2496597,-0.09339163098878188,0.155817100717632,0.05610308805517777,-7.157598666854182,-3.334026227467147,-0.27961296919919415
2496619,-0.12073503536704132,0.17843456857457557,0.058198431826460256,-7.613184698345759,-6.647158473172905,-2.0485536994065483
2496641,-0.15340903748773166,0.20533062147955172,0.056922639217485894,-6.7033394956292796,-7.133088212057073,-2.798735296474222
2496663,-0.17351944558989696,0.219718100376077,0.05234543756445142,-3.8487164693666918,-4.590599914165241,-2.0804552533668574
2496685,-0.17627453612048985,0.20800775611971195,0.046278762953775365,0.13810921477652507,-1.0164829577675172,-0.6908625160016069
2496707,-0.16951996002716924,0.17412759495661273,0.039149670624735816,3.409223812575017,1.4509507996448825,0.26780538673347115
2496729,-0.1634650142602905,0.1394333314366835,0.029456992408857244,4.494806720415702,2.2925777839958434,0.4811115211773548
2496751,-0.16256122646152749,0.1257620647542489,0.01655748680206429,3.5922382725367576,2.463154266636039,0.3759689180654843
2496773,-0.16408186926765442,0.13719374020577244,0.0024842052974021803,2.3711345520838316,2.9801831888302797,0.2521879560229834
2496795,-0.16134989921601064,0.1577487829407901,-0.00962337153843521,2.4241786967371053,3.9029911229774665,-0.07140080984565003
2496817,-0.14921395235672968,0.1660120226316266,-0.0179908771454766,3.926940752821364,4.453648018193753,-0.7050615390539324
2496839,-0.12911968327265805,0.1524436555795846,-0.022574840790797496,5.688415030281376,3.781295014829738,-1.1974974040244781
2496861,-0.1101746577065589,0.12530046266770978,-0.023736081840390895,6.2786252699581535,1.6128843653456606,-0.8802748119879874
2496883,-0.10437608008981078,0.10249857059260821,-0.021663427035597087,5.131030481782696,-1.474929144827835,0.4140269518866163
2496905,-0.11809033421614758,0.0973712949786059,-0.01742664417425905,2.8580090789079025,-4.164349129878956,2.152159382308047
2496927,-0.14572935418231944,0.10977230439991535,-0.013832074053881375,0.7048785444025136,-5.031564019273355,3.5465625658416653
2496949,-0.17222874951087197,0.12920990451530676,-0.014081913798667231,-0.3753141058253262,-3.591869163498193,4.060016153965432
2496971,-0.18412176506728403,0.14557670983014842,-0.019079748684892074,-0.26683169177792015,-0.8472532301066745,3.5527023764687313
2496993,-0.1792868046335518,0.15561653788950464,-0.026360240786628554,0.5510459525173178,1.5118707029195142,2.188301281810417
2497015,-0.16603965666270876,0.15999324766852055,-0.032034300518339213,1.6080013272698568,2.5997582678674576,0.33201800870910236
2497037,-0.15408210928197996,0.15847324261089166,-0.03382596518926285,2.68923780220755,2.8526560158779817,-1.5455188303532625
2497059,-0.14740787213538295,0.1509799157662353,-0.032309532108097366,3.660335051036618,3.066930962049958,-2.9975192619609508
2497081,-0.1445614579594167,0.141161252605974,-0.029603793263552808,4.373269637781787,3.318886821852683,-3.697646322772105
2497103,-0.14335952476842265,0.13479599702568007,-0.02724610026652693,4.824257203605764,3.1201180110682367,-3.5112505280222477
2497125,-0.14431175505099217,0.1336342927950171,-0.0252755330166495,5.195115664151696,2.422278050972154,-2.6753812895674383
2497147,-0.14952438157233172,0.1330381221970638,-0.023015138056926236,5.578689151025044,2.0181762678000883,-1.9985645936151653
2497169,-0.15852923976173416,0.1275491421468316,-0.020505615282096996,5.756847926527506,2.7616057977215034,-2.624514691241249
2497191,-0.16599106228707722,0.11755747355495366,-0.019048519843534544,5.431340434181077,4.557780626319515,-5.138015455915854
2497213,-0.16516684116002478,0.1082199433560625,-0.0200529036922543,4.671422339546245,6.319939639778137,-8.686113739647181
2497235,-0.15486470065962915,0.1025711884407988,-0.02320913757305478,3.946729941132098,6.910619342028962,-11.216421245002069
2497257,-0.14217913708842336,0.09849500737083836,-0.02622495363978235,3.6221844964966485,6.072017183922852,-10.99005239287109
2497279,-0.13639300149132977,0.0925521212089549,-0.02677706533179517,3.5376328727411215,4.542620898001124,-8.066054570881478
2497301,-0.13992656201007717,0.08426018874446285,-0.024524634855022293,3.194272283928842,3.404804953216133,-4.270825692881818
2497323,-0.14667863690786426,0.07624786370775237,-0.02099574711286811,2.2764360481256585,3.284769862645673,-1.648772558192267
2497345,-0.14905591741876642,0.07267009571745288,-0.017862194807596755,0.8762421389919403,4.032110952833644,-0.9103246223717552
2497367,-0.14465352561844794,0.07814242357968618,-0.015677775195614124,-0.7336273596393298,5.04378543787796,-1.273970290874016
2497389,-0.13591953454462627,0.09531912761428117,-0.014056109914576361,-2.382911171731972,5.838481568179869,-1.5900200961227742
2497411,-0.12581238566046296,0.12118361742487312,-0.012547146033709404,-4.034979049805075,6.365805626543715,-1.4633651859868477
