timestamp,ax,ay,az,gx,gy,gz
2537583,0.005019513748033223,0.008050546626914713,-0.002481547057465016,1.1584684543425525,0.2885594642918869,-1.0723481204298377
2537605,-0.006319429943587633,0.0056041779892666045,-0.0007551305638187338,1.1616051691907978,0.27695551258389134,-0.8537030823323847
2537627,-0.011340757383272762,0.002271723784323071,-0.0002592975153745783,1.137911673744981,0.350129409598515,-0.5611617814565698
2537649,-0.008106925941148438,-0.002628217315412268,-0.0010878516131695663,0.9904296111971328,0.41885849497211997,-0.20099317728107796
2537671,-7.655664736889897e-05,-0.008388484199757594,-0.0021641904758518326,0.571407304895647,0.30280329064233413,0.14087235146176683
2537693,0.00690296768885932,-0.012024096429433308,-0.002277003604160009,-0.17064033666497505,-0.031678626629389556,0.3669243740956628
2537715,0.00900233299234144,-0.010011851077250278,-0.0010541593643133378,-1.028642562842521,-0.3964554836984715,0.4414178149102216
2537737,0.006434705198623515,-0.0020559077748083508,0.0010251964555199446,-1.5750836133535575,-0.5697014580969691,0.43822014639069923
2537759,0.0018238996592189441,0.0074457414212172595,0.0032123290348310828,-1.4630583013042961,-0.49871786626912584,0.5317081125539597
2537781,-0.0025599449011810067,0.012851234652175032,0.0047797511535555715,-0.7406521539025712,-0.27001789277332866,0.8891660740877156
2537803,-0.005611529813432067,0.012449002181940774,0.004935056681376397,0.14683495805909283,0.06479804012189465,1.50309037109466
2537825,-0.006416456365597485,0.009839561507378006,0.003016907872843638,0.7012571832053296,0.533537049243858,2.106662666680185
2537847,-0.00403059204682247,0.009998259207738544,-0.0007668401115044415,0.7641326366230701,1.1016623859638466,2.3018381153283944
2537869,0.001138188043300885,0.014166208927472886,-0.0048549280892643525,0.6138079115932856,1.5713017402520597,1.8665093349088702
2537891,0.006466223889278748,0.018941151218196596,-0.007187536879912517,0.6786534206329324,1.6950585232959101,0.9795787606631055
2537913,0.008814329236503837,0.020260067212033665,-0.007216405569035965,1.1069496240143286,1.390379143641214,0.05101822969654908
2537935,0.007663246591175495,0.017858062104698032,-0.007284096354082987,1.5725875024094662,0.8147744893839893,-0.7735164320526001
2537957,0.006132340606192507,0.01610809284646878,-0.011738861686408022,1.5428237500740605,0.22416765828133267,-1.8457369162777593
2537979,0.007816925603676802,0.02088293628347767,-0.024116042519156607,0.8866863820511993,-0.2514772845488516,-3.555329356803114
2538001,0.01197533295427209,0.03417321646659205,-0.04441748147978342,0.32133466441909,-0.7158217327216567,-5.644236137921135
2538023,0.01277364245317238,0.049623142743200926,-0.06864471447892272,1.0840072934827332,-1.3603656244485085,-7.2061556448323785
2538045,0.005306266907624694,0.05435116472665352,-0.09153112473092324,3.802907420514171,-2.1277671175511967,-7.497982403824473
2538067,-0.006893846089416599,0.039197515860899625,-0.11086134274969296,7.587834565331975,-2.557325475166941,-6.6616190633972385
2538089,-0.012096442774699255,0.008825779813737368,-0.12894427610544662,10.544996974104471,-2.2092703593552514,-5.576314635683663
2538111,-0.0005152764243500482,-0.021005355631226224,-0.14815384499052178,11.443879107315066,-1.4648281745781437,-5.107569682400936
2538133,0.024963535634631988,-0.03828648283525686,-0.16451663128790098,10.728090307032733,-1.8103786318577535,-5.54890723849925
2538155,0.0486376827666855,-0.04549789488938842,-0.16774933404506442,9.731968997751451,-4.921262768887558,-6.543093926680767
2538177,0.05308123618301899,-0.054733493718605086,-0.14960422661776013,9.137354488375038,-11.06252057951884,-7.241831828973266
2538199,0.03149341035306403,-0.0745064874979393,-0.11192977668771915,8.404402925596877,-18.316034369203834,-6.647549437648189
2538221,-0.00839817942748553,-0.10251477933720164,-0.06596003684318577,6.430051172100522,-23.622552560054395,-4.200917670775733
2538243,-0.05019891436879931,-0.12784851980920844,-0.024654606167700648,2.435920235238519,-24.891853839027952,-0.16567360791230293
2538265,-0.07898519373164592,-0.13699193088558548,0.003992322348111806,-3.5164864256739925,-22.354271300638928,4.739667216832731
2538287,-0.08896869814950682,-0.12051991747533268,0.018752827643692974,-10.317520984315788,-18.08560071533251,10.063411785607942
2538309,-0.08447026054770303,-0.07965847964346238,0.023510601653230514,-16.046015938637,-14.311974030011307,15.693945866810811
2538331,-0.07481278182959014,-0.027714004497762686,0.024013954434246892,-18.893294616143884,-11.99908548912464,21.17361659130367
2538353,-0.0682076918001864,0.017520141169160553,0.02432010039298273,-18.251045475275802,-10.713498173643544,25.27631732556526
2538375,-0.06908255068306855,0.044230868354178006,0.025292636054299506,-14.978285882863942,-9.50646078155255,26.57906163625665
2538397,-0.07808741455324515,0.05034362028591428,0.02631144242199405,-10.703100336294671,-7.808137909098,24.505863585884708
2538419,-0.09160860148775783,0.040737576777267054,0.02740675161832542,-6.9825651594769855,-5.637192381732826,19.804473815304878
2538441,-0.10148536304418045,0.024615331503747933,0.02875359897847105,-4.851776450112653,-3.3186402689204817,14.101085730583991
2538463,-0.09896170961059104,0.013341305948123246,0.029201220468592835,-4.537619108044718,-1.3125720409888313,8.998883462896444
2538485,-0.08225670664030309,0.014461175243421425,0.027276691481997108,-5.289457738301959,-0.26883922531311405,5.3124043320350935
2538507,-0.05970840569269736,0.025214886827668464,0.023447146605113295,-5.811089363264753,-0.8578660739922291,2.800544038001952
2538529,-0.04330552280931742,0.034633367512846895,0.019585349541627616,-5.298691246184101,-3.26632340756021,0.6115570087904385
2538551,-0.039769199718145486,0.034219288376354004,0.016237627768619135,-4.090641988856688,-6.950007519364379,-1.7292364413119508
2538573,-0.04962508246097458,0.025293397228967826,0.012556224703738999,-3.1373515878234124,-10.98259101802993,-3.647079371824279
2538595,-0.07170299044462426,0.015296131082528234,0.009264452465799792,-2.942388437466791,-14.46208912335201,-4.032312115977279
2538617,-0.10208125423120532,0.010207638750100407,0.008904861658688833,-3.2612091892520785,-16.530992322860524,-2.517622073833743
2538639,-0.12899275152886128,0.012457408873255317,0.011746989212965749,-3.662781713288255,-16.49134816678522,0.07481508670417344
2538661,-0.13789983448850823,0.021580497367734538,0.014288130524764114,-3.936869859462687,-14.423624883821626,2.7391766691298307
2538683,-0.12735392825308037,0.03256797747603671,0.014282600931902718,-4.002954965139525,-11.558065332873666,5.221939704827215
2538705,-0.1143562556789198,0.037752454636276446,0.0149354450101308,-3.964624339485515,-9.494700116305397,7.411642174454364
2538727,-0.116682920691871,0.036096659812200456,0.020891156945071206,-4.303925927683372,-8.843177642238853,8.301938278473678
2538749,-0.13203444513365076,0.037012187381713656,0.03149556083108722,-5.361069270456263,-8.826400399124458,6.691646785790935
2538771,-0.14159977315669367,0.047726002073810836,0.04166299020676918,-6.385877957498892,-8.315860438791034,3.096479564123174
2538793,-0.13388210145148266,0.059679247110352995,0.04897722262384343,-5.869697114685217,-7.046425399187596,-0.09804341167444328
2538815,-0.11762912353047465,0.057243222093425715,0.05593319430061539,-3.44296169035421,-5.6617764138661695,-1.0976550105835945
2538837,-0.10889945205439747,0.04014989299871085,0.06432436473142494,-0.8832860907106721,-4.776584072755569,-0.6450802070235915
2538859,-0.1123098259032358,0.026773527522248635,0.07138906800476699,-0.3874170040951235,-4.321751015234957,-0.7024235099275267
2538881,-0.12019930290919544,0.03168146683018011,0.07370195040790355,-2.0721485337987477,-3.804404392508974,-1.7142710213801968
2538903,-0.12529201432778775,0.04895838678668117,0.07193866846819379,-3.973196548129875,-2.897153598309315,-2.2181198769713966
2538925,-0.1272551414066176,0.06282594872682495,0.06923816418319041,-4.404963323801327,-1.6293292698592388,-1.0299690744467696
2538947,-0.12843641318890747,0.067311250578005,0.06667618815341243,-3.521216189112212,-0.20990271321447035,1.1902600964954269
2538969,-0.1294744074200647,0.06864059615140512,0.06261858603402848,-2.4709601042188036,1.146535096167092,2.79753092092001
2538991,-0.13040610250887197,0.07262217739063255,0.05553046172573427,-1.817120147504596,2.326604663157889,2.9168469934545835
2539013,-0.13220501488932057,0.07736898748423544,0.04554267951511084,-1.2513125473483906,3.422258107216645,1.9842930777376595
2539035,-0.13477741443983848,0.07866409435002712,0.03357899461086919,-0.41542833892240294,4.67231035867843,0.9317005966665266
2539057,-0.13491977723009457,0.07687331050003793,0.020386897848011825,0.6134263648780742,6.134049550437216,0.26873566177167907
2539079,-0.12865727147632242,0.07559189859925547,0.006800611013206817,1.6295649674602006,7.395960151301018,-0.10102780976903875
2539101,-0.11616296538163552,0.07595855736456156,-0.005577595139178721,2.624613238428086,7.762620520624001,-0.5153120147284928
2539123,-0.10335096734120686,0.07530984073116574,-0.014405784706954585,3.6178765688054177,6.8674270657335095,-1.1756019843029206
2539145,-0.0975661164713703,0.07066747153968557,-0.017726492380753255,4.399038946396205,5.131925743187061,-2.0046021510310044
2539167,-0.1012767319394761,0.06139849471782242,-0.01558940638564954,4.640409596989729,3.544207620109581,-2.7145760187265924
2539189,-0.10988354383529919,0.04902013987698847,-0.010688015671241159,4.178445824413063,2.8787833687782363,-3.0011616606466487
2539211,-0.11567956320618829,0.036601823656343006,-0.006954312435171361,3.07319382669976,3.066834770489273,-2.737346196705807
2539233,-0.11420744794286716,0.028519419219629957,-0.006966953229824949,1.4810762122848762,3.312324406462488,-2.044746756186084
2539255,-0.10738568452225118,0.028685652445728262,-0.01029636497369673,-0.38421126072877076,2.8288290289878373,-1.248861250801658
2539277,-0.10109620405692396,0.03737292020015224,-0.014089152082764088,-2.1776522942440173,1.4872654951391278,-0.7872149967170933
2539299,-0.09988757959960613,0.04997329048534679,-0.015392726195474582,-3.45577462174929,-0.1818111057656889,-1.0306170065677265
2539321,-0.10360001113108071,0.059835339265230984,-0.013385666433611484,-3.906782116285916,-1.4994941435103548,-1.9859570170435192
2539343,-0.10864407802717148,0.06289419783717257,-0.009570467630062267,-3.593149633925889,-2.1010528649226887,-3.1104196166683584
2539365,-0.11227216159232345,0.0600931772050704,-0.0058440194270250705,-2.96004142341085,-2.0135904453036466,-3.575920514371081
2539387,-0.11511396849512338,0.056116022471875235,-0.0028445787188323773,-2.5396905366008173,-1.4613246367279185,-2.931757552263991
2539409,-0.11899777733279071,0.055882485082944446,-0.000597897782026432,-2.5291854576757564,-0.6706912360492806,-1.5822174925419783
2539431,-0.1228400591535323,0.061297976717292174,-0.00017110229901356295,-2.582915001456132,0.16915331996381264,-0.5289160387243548
2539453,-0.12237666998649815,0.07025921469040995,-0.00342281109522143,-2.0711431458046716,0.8360104754240146,-0.5367725689368216
2539475,-0.11490605471258337,0.07813693469512127,-0.010512583645341994,-0.6688900410742108,1.0872112219565877,-1.5151249329115843
2539497,-0.10342196625866333,0.0802299187257815,-0.018172756100261558,1.2370986750711717,0.8427861476185374,-2.697474716161928
2539519,-0.09481889772132096,0.0737756622456448,-0.021358190748330893,2.7632379886257037,0.3206901454879628,-3.356329146430843
2539541,-0.09390631721220397,0.05902369970519599,-0.017163304385662888,3.2510682128553134,-0.1359687013953253,-3.2975723972467756
2539563,-0.09934157344983496,0.03917799011011265,-0.007400411840263127,2.8626691621203015,-0.40204180931053596,-2.794165783928498
