timestamp,ax,ay,az,gx,gy,gz
2481395,-0.0046188003381803025,0.01439562797021113,-0.00309803662622799,0.0705023860877935,-0.8165899604048048,0.5301814503561518
2481417,-3.1121322336321645e-05,0.002233662789075697,-0.001609363081771822,0.2749243064739624,-1.084635682913428,-0.790285996045763
2481439,0.0008243525585692859,-0.007724762794757426,0.0008448723146986855,0.15403793581044217,-1.0705103112685201,-1.3246302744749314
2481461,-0.0027086008324998336,-0.012795073173247578,0.004020233164338504,-0.3402231417993272,-0.6524790342543828,-0.8811824633528518
2481483,-0.007323523698926276,-0.0110281962149314,0.006293914886811961,-0.9161787667490705,0.06393945244385302,0.06960185495629993
2481505,-0.008164052177173454,-0.00350802098187697,0.005805798404673682,-1.141261416090798,0.7914311774611787,0.8401308164606178
2481527,-0.0030826198813998936,0.005028534555886266,0.0021482888550937566,-0.7755132516650529,1.204495480142628,1.0229609195178333
2481549,0.004959354959024852,0.008947836128425474,-0.002795925421679447,0.025041942042926812,1.1177466993838707,0.6908650444095389
2481571,0.010040587316455516,0.005907058919683647,-0.005825038349041146,0.8268689313022635,0.6005113818969382,0.2569054975179368
2481593,0.00826519822846154,-0.0017996772933994288,-0.004646032195694154,1.2499647614116636,-0.06148114587905664,0.12374939153792693
2481615,0.0009232443328190057,-0.010009963114531823,0.00035471710601576886,1.1685431581774892,-0.5406741659084225,0.339357688908235
2481637,-0.0066887461390307745,-0.01561164256801765,0.006077365406822448,0.6303375529964276,-0.635068629989058,0.5458195585667026
2481659,-0.009001900535629872,-0.016111587289357562,0.008275721237606604,-0.232276829397209,-0.3210048535648051,0.37742925397033444
2481681,-0.0033839865351143693,-0.008578717521245746,0.003736596803832067,-1.0480130869774886,0.23839030002682352,0.02125761577259025
2481703,0.008170319458996975,0.007222516689426346,-0.007828563703920266,-1.141557878281252,0.6445958035679277,0.26612563241803167
2481725,0.018539742571177555,0.02361405236817532,-0.02313271637706209,-0.119660373266751,0.34797474380353266,1.6576185046273175
2481747,0.017668621945812833,0.026542980547889436,-0.03742297758571774,1.166197483106943,-0.8641354883047685,3.391578315704293
2481769,-0.0001474732918314466,0.0073952500177052105,-0.04966803881011143,0.5887724700539589,-2.2118015642920192,3.326821821944894
2481791,-0.02725569085037694,-0.025796320424895772,-0.06654325428199158,-3.5203761918181793,-2.0270255571379074,-0.22753667791208335
2481813,-0.04314743025329775,-0.05316777187113328,-0.09807687545130529,-10.169324419708879,0.7682871712739999,-6.316913660303757
2481835,-0.031154373679184773,-0.06186609375566243,-0.14477492662272393,-15.71982052155714,4.886052585606984,-11.292860467622097
2481857,0.0015409830755755936,-0.056231341376966795,-0.1890573214794094,-16.931140312055007,6.916270473900118,-11.737582631344262
2481879,0.02517339596815391,-0.04523096221627561,-0.20487114313081828,-14.061198104664971,4.339901176178347,-7.709168687735655
2481901,0.0155692204752321,-0.025913312708946156,-0.1801343983116871,-10.29251784089978,-1.4536490920215384,-2.6651820657721923
2481923,-0.01894180690976193,0.009521113137922234,-0.12854039844294488,-8.044131560682267,-5.9369196329910165,0.04293721967144298
2481945,-0.04448557251091408,0.05095273459866518,-0.07707785926410514,-6.797258426609935,-5.934982936001537,0.12280328608786034
2481967,-0.037446349807163305,0.06945992616408954,-0.04379864096920701,-4.969731453188035,-3.0765328934587064,-0.48516038034857056
2481989,-0.008787908917693392,0.04886802512409329,-0.029508550025851933,-2.824746234085801,-2.1125028187256856,-0.6455093355719446
2482011,0.010249375125483077,0.009902991955506113,-0.026511182010936486,-2.260696078776841,-5.843805265244509,-1.1565767014231654
2482033,0.001879651979038415,-0.009935782277746373,-0.02831295359770017,-3.995536415687041,-12.30530827789117,-2.7507181033095556
2482055,-0.025181652948095542,0.001198803929451698,-0.030316854842285433,-6.326421026244956,-16.990503799167072,-4.059268455922092
2482077,-0.05348243945109167,0.019087624315620947,-0.027868219506212495,-7.346045438277324,-17.0766443543154,-2.7139274569123533
2482099,-0.07625469986505014,0.018473933099296853,-0.01965956581101091,-7.623897671852898,-13.046839527267036,1.3901641949046133
2482121,-0.0935180239923798,0.008334772597104736,-0.012528962323917137,-9.53931913327774,-6.997277185491715,4.732855964268367
2482143,-0.09763619653971346,0.021664830840132026,-0.01785366765249114,-13.809890997430777,-0.6243538259981876,2.91039580403426
2482165,-0.07517913617682447,0.07054493245644942,-0.03948334329960591,-17.664110304049707,4.915899535588907,-5.009329364983032
2482187,-0.0244271817504487,0.1217195647522315,-0.06605373852233307,-17.40731588466539,8.197239719598484,-15.028250368427901
2482209,0.035895517304821586,0.12627798240703386,-0.07838311339079836,-12.764068435168724,7.626753184501844,-21.280070973121166
2482231,0.07792351217760238,0.07295218897527364,-0.06598047572988974,-7.954991222988241,2.607842283671405,-20.78912835422166
2482253,0.08297283263559702,0.004266575591712346,-0.03584923289312591,-7.946718416361262,-5.555881855316922,-15.619224136220975
2482275,0.051424809717513925,-0.024060974224051696,-0.005208160085093434,-13.653906144858336,-13.994839682887296,-10.641172468100008
2482297,0.0008524920723963153,0.004134569093752096,0.013387320828734518,-21.082279121769034,-19.715577872161358,-9.119520650057472
2482319,-0.04423645590593588,0.05695128902011495,0.02001438559612153,-25.196649026549157,-21.264292167103083,-10.12563547134395
2482341,-0.06644612782659255,0.09406493407003144,0.023115781168691802,-24.32329424961546,-19.504611448354872,-9.872206886870062
2482363,-0.06580593204484893,0.10555489221020618,0.030104710640908316,-20.679779393413583,-16.872563465006042,-5.457105192713257
2482385,-0.05811129865433662,0.10908290002923444,0.042570671411161345,-17.256457636087163,-15.621588095253049,2.3205812180727867
2482407,-0.06113646124484014,0.11873696368488165,0.058022240935249735,-15.083545830566731,-16.42884133152626,9.253633639452097
2482429,-0.07996390563480531,0.1287157096009664,0.07303971925193398,-13.520292087038289,-18.31811338081839,10.792860201364947
2482451,-0.10444228317870737,0.12754202295169217,0.08424900720294526,-12.091760589953756,-19.673326137787402,5.5926148576755175
2482473,-0.1203791131085682,0.11727893190689984,0.08859173295909814,-11.107280457447537,-19.426397996580167,-3.199280339369451
2482495,-0.12284312857460618,0.11155626219277248,0.08475599301838346,-10.743405065853343,-17.627676960037885,-10.124405603871022
2482517,-0.11875758663855474,0.11858249476364495,0.0744533101323115,-10.40811242900324,-15.115556221923603,-11.457530120294896
2482539,-0.11761925281622425,0.13243192861136321,0.06169731767220371,-9.35623331616243,-12.650785302860701,-7.714917302859188
2482561,-0.12109619823537811,0.14035052513493582,0.05091848230636728,-7.581014371731481,-10.359314097024127,-2.524829516459611
2482583,-0.12262448162966823,0.1343944878903694,0.04580011610891629,-5.805845903395709,-8.013706349240783,0.8425047208717378
2482605,-0.1167235267019294,0.11658801783019918,0.048491940750995624,-4.764788024517439,-5.672507984370852,1.870216887763033
2482627,-0.10645665942324242,0.09724644085754246,0.05775510553281221,-4.717176650116086,-3.758282887891988,2.1125340967726007
2482649,-0.10012513682743011,0.08918926088009087,0.06752033019678266,-5.528058389952081,-2.5057471801037114,2.8350955291739814
2482671,-0.1024530089525459,0.09995850506375738,0.06944944899041527,-6.882877905097009,-1.6359009863421996,3.861511444896159
2482693,-0.11167150702651289,0.1268316264226564,0.05912718614100109,-8.284445931622384,-0.7083258598853331,4.456963432620557
2482715,-0.12372958813312823,0.15888724398289286,0.039981140254612725,-9.004410806675265,0.4314709938791382,4.447829237782645
2482737,-0.13528893822498617,0.18363669538248095,0.02043053705670931,-8.326485165399832,1.702921398827375,4.067590975672768
2482759,-0.14250166864732502,0.19259550982165244,0.007120284692081181,-6.061505347325603,3.0317274904051956,3.2714456318784793
2482781,-0.14133218693794636,0.18417669365697728,0.0009468744823971121,-2.8829685097218163,4.251667971163991,1.8496008168230031
2482803,-0.1317167464182602,0.16463654665804264,-0.0013768032521555634,-0.04903462406308126,4.913067148628956,0.06388075057312026
2482825,-0.11941977024478423,0.14570223260646797,-0.003257422463834051,1.3884243609744442,4.571877368640473,-1.3469029281200322
2482847,-0.11178582281490775,0.13797309035261993,-0.005697133183142612,1.2712384941188528,3.3532935631895553,-1.862679620154253
2482869,-0.11249512903759658,0.1437299392258955,-0.007505794779054958,0.36765296919845913,2.00613871802965,-1.6475477775249885
2482891,-0.1205462541941298,0.1550901565448228,-0.0071285456579280185,-0.24776732091757744,1.3017065745477028,-1.326293909059026
2482913,-0.13168848392428484,0.15998362507481334,-0.0044774671167709225,0.024073572452779475,1.4695746891167671,-1.4248622385135308
2482935,-0.13970390127823132,0.15180901687808637,-0.001480632553034171,0.9345548105114501,2.175044996684613,-1.9521897306878508
2482957,-0.1392406078083543,0.1347764733783505,-0.0008453404448199581,1.676904506332239,2.847536767649016,-2.4133370495218984
2482979,-0.13033974871181792,0.12035950290012197,-0.0038891819907292463,1.586596101396319,3.0260222845488443,-2.2851181778593013
2483001,-0.11952108773612767,0.11800933835593912,-0.009391070418570764,0.6813792978210319,2.6307778942810045,-1.5405375062737097
2483023,-0.11446699384647097,0.12770355704159045,-0.014685263674535213,-0.39168196460797566,2.0459156552593543,-0.6691283316755047
2483045,-0.11747708955710989,0.14022611670503846,-0.017861717456241415,-0.9380365075059491,1.8268874354110924,-0.18087269484811547
2483067,-0.1245599776034976,0.1454391030270011,-0.018842286747051705,-0.8002474083971245,2.2021282446706394,-0.1438537731978083
2483089,-0.12996716685670154,0.1417176718151981,-0.018740712842213073,-0.40156255482601755,2.8843967560864225,-0.20963308559676866
2483111,-0.13057908519320283,0.13696524109607638,-0.018738517170032887,-0.22617153465508194,3.3996395332614107,-0.059106384024022796
2483133,-0.12664361187525405,0.13934724217750802,-0.019469722534593267,-0.29673916188769056,3.534911874335822,0.197823495152973
2483155,-0.1200776324738945,0.14769235930333469,-0.020837407303869137,-0.19907497213259026,3.420372377098264,0.10831530689678434
2483177,-0.11308525153668877,0.15236486047213324,-0.022026588016248228,0.3995360140888642,3.2449580570131986,-0.611102440524968
2483199,-0.10784503877173088,0.1454024592630117,-0.021911422274791675,1.3021154385920402,3.012173200062649,-1.704634016987029
2483221,-0.1060044858296765,0.1287368444759838,-0.019944633342227815,1.8735587904899205,2.6257849126409396,-2.567384675544371
2483243,-0.10750698154058166,0.11243716902405457,-0.01688285186781808,1.5941618255558536,2.1505686486270714,-2.757427937624754
2483265,-0.11015298723725465,0.105805361833711,-0.014450377695011375,0.5351206010448043,1.8681937125684769,-2.2991000068284797
2483287,-0.11099592677029035,0.11038654451878568,-0.01395711385919513,-0.7090683607571814,2.0051003670277963,-1.5799869444024515
2483309,-0.10861644266752883,0.12045083688020893,-0.015080466429395251,-1.537084210971595,2.4237125001628734,-1.0396307619055924
2483331,-0.10414244897246852,0.12877638694329244,-0.01608417674021081,-1.7673231845029498,2.651573518161422,-0.920267747397761
2483353,-0.09983754767443961,0.13181710227974786,-0.015405957090324622,-1.6015671029738143,2.2840424763026896,-1.2092981809528285
2483375,-0.09661132182658068,0.13083883041293148,-0.013116964172281838,-1.2993631846157299,1.3879531989790552,-1.7299242010109364
