timestamp,ax,ay,az,gx,gy,gz
2558615,-0.0020473894176178033,0.014973746131023527,0.008347641440588369,-1.058197666768063,2.0340100830835213,0.08811844195173915
2558637,-0.001254059740198869,0.006848870113859569,0.005676959899728426,0.3256329252165723,1.5652386848046804,-0.5523070219216645
2558659,-0.000622693555942797,-0.0007026267102982524,0.003664303404919834,1.171371013477576,1.0432099864856816,-0.650070419271689
2558681,-0.0003661881041703353,-0.0065141733271251645,0.0022913582581669404,1.2116332022066478,0.38916578415110176,-0.2665972532259971
2558703,-0.0006790645637351035,-0.00895278006908369,0.0009197570215981639,0.594452055341175,-0.37084795515647384,0.07524221625488173
2558725,-0.0014202170606589174,-0.007147810679855574,-0.0009840912846549197,-0.21352463080787065,-1.00123440471504,0.06138505455235753
2558747,-0.0017473710759502933,-0.0024388660611373513,-0.003221672408827279,-0.7295300795713785,-1.2133781902394187,-0.07582501412309016
2558769,-0.0004113831901055171,0.0018741398706615994,-0.0049765294901366365,-0.7534653991324304,-0.9680938961296189,0.08425762090846718
2558791,0.003061263624361151,0.002925544436019699,-0.0055568935003196766,-0.4438898419415697,-0.5763791175589906,0.6160665874825466
2558813,0.007334641054986778,0.0007062438921601172,-0.005026211047836677,-0.14583990970729083,-0.4639163984903841,1.1602988026885155
2558835,0.009798440816565104,-0.001789462967445841,-0.004176599358367863,-0.13644067841666763,-0.8251557897643322,1.2795010055992686
2558857,0.008707349173067149,-0.0009321495014510913,-0.003997350814248955,-0.45106885452210393,-1.4774458885086084,0.8281747874456987
2558879,0.005038960696245608,0.0040774999053756296,-0.004999338373250032,-0.8519358490724228,-2.0084417444435108,0.04923500100937354
2558901,0.0019085115989632656,0.009243677344862769,-0.0066027196517635155,-0.9860202198508339,-2.076072150924622,-0.6042337457351092
2558923,0.0016844814467189499,0.00854859793491561,-0.007263753963042746,-0.7158422191822302,-1.6531513624101752,-0.7828911173774914
2558945,0.0038346258196210784,0.00102030650176404,-0.006185603149852285,-0.34297014044963503,-1.059268779685915,-0.49060145491058743
2558967,0.006111150883590619,-0.005597953644626109,-0.00542515564864241,-0.3725027854251836,-0.7410431896397245,-0.09971451939014919
2558989,0.007426344914007819,-0.002163674233277206,-0.009123620641506298,-0.9701893659456723,-0.9586127902321702,-0.14594337752520758
2559011,0.00835897392249943,0.008738497485814097,-0.019156282700638256,-1.7822488779526524,-1.6464774622335012,-1.059248143428234
2559033,0.008909384878778345,0.010014109784038995,-0.03210328221533889,-2.4646280567500423,-2.536274896441204,-2.9119377523852843
2559055,0.00746779231706489,-0.014088342618312351,-0.042822644640432006,-3.3779734905323666,-3.362740113399819,-5.207206018939711
2559077,0.0027857651120795674,-0.056246219672105545,-0.05223215068614441,-5.563392737788705,-3.9800124576646394,-6.914555858914218
2559099,-0.004255136470589178,-0.0823790979447242,-0.06988943958990732,-9.719711411988492,-4.379855698808039,-6.996021765307007
2559121,-0.011777440544463877,-0.05667325989180367,-0.10558347913667407,-14.867693420248335,-4.627857711820379,-5.175220288094436
2559143,-0.019185065884391624,0.02314351421385632,-0.15642204068471227,-18.027855098833435,-4.7167204796961295,-2.2856587463058036
2559165,-0.027646567038828167,0.11539017949141955,-0.20330802332784534,-15.874264020817352,-4.425702987883788,0.06091401223535525
2559187,-0.03784320765794634,0.1638430642539083,-0.22302844588683424,-7.542421203502635,-3.3116890215654093,0.1538605384487969
2559209,-0.04582989871716352,0.14035738075216056,-0.2059954109621677,3.9832439119964453,-0.9286556646574708,-2.9655538332560996
2559231,-0.0411444723303863,0.06056717154324235,-0.16300747342123048,13.566443152676948,2.6104820071886805,-8.473938993527366
2559253,-0.013713194088386848,-0.034793782189734536,-0.1154407540216644,17.201237428946712,5.924254291860301,-13.314636172964091
2559275,0.032093684969001945,-0.10648286473065578,-0.07930920586094871,13.948058986712185,6.447352553926837,-13.612687926060815
2559297,0.07224452562845324,-0.13132904094734235,-0.05708308000587514,5.577134634578817,2.1682888457779157,-7.76739639653314
2559319,0.0795792936315379,-0.10832329185358391,-0.04130401577136509,-4.827460155922606,-6.002491315268087,1.4130932589133907
2559341,0.049083432638561963,-0.05944654978802948,-0.023853244635018575,-14.238179462843808,-13.941380525220687,8.302904828436764
2559363,0.003031211540935635,-0.016953392325187635,-0.0025244929299639415,-20.852821137150833,-17.23517084555693,9.103971110021329
2559385,-0.03152605025869794,0.0010129641767674426,0.01903018474121122,-24.60877421137355,-14.651151664620311,5.22677992736716
2559407,-0.04649729788931926,0.004789937881069113,0.035645299060091444,-26.449849133761187,-8.444504677366984,1.8828039603835909
2559429,-0.050828793425321366,0.020621477878719773,0.044142532356271046,-26.947229319235007,-1.5069366337903864,3.2598360912684123
2559451,-0.05023781813891413,0.06204754015663387,0.04385402461234364,-25.77301925043636,4.849311333890685,9.011820448647091
2559473,-0.038317673436316174,0.11445106512227791,0.03601269118698232,-22.54606275565361,9.95432990207053,14.994619957223868
2559495,-0.010178920048583501,0.1492214285163148,0.023366914348360395,-17.893706049702452,11.792433815157514,16.914462369739116
2559517,0.022752991974221752,0.15204507127804529,0.00917544477682644,-13.33330977805568,7.675565940906,13.461158741075874
2559539,0.03995069284129841,0.1341314487695396,-0.00430794801059215,-10.0500896463287,-2.509442164084731,6.73198166910456
2559561,0.03324479743319732,0.11633174431092232,-0.016058507407622873,-8.023809200004216,-14.758698001635933,0.24016221373879582
2559583,0.01432785810529879,0.10818700438688646,-0.024951978656119755,-6.493577001260626,-23.890281281164963,-3.622266101360346
2559605,-0.0012718843914996357,0.10516639691347479,-0.028890472082566395,-5.039317184031212,-28.018453081100052,-4.828655705262202
2559627,-0.012169642912803057,0.1004130655835316,-0.025754827278280074,-3.909420108109714,-29.43163847678505,-5.0406120550871565
2559649,-0.02898553922704005,0.09252600765100963,-0.015268888793108224,-3.4144334748804432,-31.180227776017226,-5.829889401110313
2559671,-0.058112488933659216,0.08317158138157231,0.0002812570542575181,-3.4118710780028136,-33.62898491431584,-7.2947355198554344
2559693,-0.09349010737527101,0.07303486873012287,0.017478132497035084,-3.5660483891594765,-34.51624574762786,-8.0891626102233
2559715,-0.12379454509976323,0.0630358663102145,0.03384698258123943,-3.9448421879182023,-31.651598550033427,-6.777123041224987
2559737,-0.14208965328166367,0.05818160550900702,0.04801711662246089,-5.101879203591,-25.091639186870612,-3.4102256678915928
2559759,-0.14673801908030842,0.06693739366883651,0.05820021063748342,-7.361604508062729,-17.087910743749976,0.1637585848686087
2559781,-0.13828430591966462,0.09288521492653354,0.062381704732495255,-9.94998714725495,-10.41942228662605,1.8989547370165902
2559803,-0.12043324973122913,0.12583990180102328,0.06115473719314063,-11.105406321698153,-6.604948722382259,1.6765604730375812
2559825,-0.10176066044944776,0.14585950399077463,0.058741923839505474,-9.554871832107711,-5.193632665605002,1.4956283068132867
2559847,-0.09104244922554149,0.14122914300274417,0.05914877920400132,-6.026816371605854,-4.523623253836519,3.2058964590389776
2559869,-0.08975323869722719,0.12109003796394366,0.061873729270455854,-2.9043990377439695,-3.230435739395631,6.351361401835563
2559891,-0.09136702632471631,0.10624588876835943,0.06295259487840617,-2.0521606466456186,-1.193176039791055,8.69885472339678
2559913,-0.0888417144666396,0.10849246080921347,0.05972276898501325,-3.1129586690562263,0.7381852575894943,8.704537103249452
2559935,-0.08215322515785307,0.12228344332808314,0.05321143796346033,-4.09096483759964,1.7251583414113423,6.975684658233459
2559957,-0.07860404827158628,0.1351571063489609,0.046289571367718045,-3.389174835552735,1.6938586026563778,5.303604239323349
2559979,-0.08604415100827977,0.14136833927796186,0.04082590871548689,-1.057133958265954,1.3809515036402198,4.6527587671087955
2560001,-0.10475058931870598,0.14369886670182594,0.03641773279240753,1.7276974289812081,1.8361875649838437,4.332543490374561
2560023,-0.12459927806651241,0.1454527608722623,0.030555650031730688,3.9384103686352008,3.797176209617344,3.112313860164006
2560045,-0.13084646678227624,0.14511177934953176,0.02004962338759397,5.332412441694191,7.205946526829785,0.9713700698296199
2560067,-0.11530998560759975,0.1397136523199655,0.003868726246623884,6.179651188346001,11.015788326035425,-0.5792233835833605
2560089,-0.08392690956661875,0.13022200731309178,-0.014607321241240505,6.795213251002933,13.531213889381839,-0.1502409170737737
2560111,-0.05316380974988399,0.12011304711207123,-0.02900029329763871,7.364529338163249,13.372334800423035,1.7394677773832468
2560133,-0.03760446388507376,0.10976860006636303,-0.034713337439942156,7.871655445599629,10.502132048368097,2.9477031588071525
2560155,-0.03984528419137946,0.0967904671153468,-0.032734750370212465,7.966397937730086,6.372129957051731,1.8981996059864998
2560177,-0.051330602999195486,0.0828602599010011,-0.028699552812826584,7.108281616753334,2.911444653598835,-0.7744982991707088
2560199,-0.06144763750874369,0.07543843292176929,-0.02803207506855214,5.154825062853695,1.2122917819897319,-2.959066101527562
2560221,-0.06516225762135029,0.07897663113422607,-0.03165843609840391,2.760258220598651,1.02939373640748,-3.2675702603557952
2560243,-0.06361388423987843,0.08734280353193519,-0.036061653195756195,0.9108752414619241,1.3391177013004496,-2.2393457858133115
2560265,-0.06021838781108809,0.08955723253511055,-0.0372458938671006,0.0117207827645614,1.2572725790503894,-1.459546754048352
2560287,-0.05731435113377746,0.08255657683215882,-0.03452305434854752,-0.37936609065474663,0.5390228749277298,-1.870317778358909
2560309,-0.055317812225962396,0.0745288421051037,-0.03048028020869152,-0.8758506673664307,-0.5254879553218231,-3.076294402146959
2560331,-0.05357578329453182,0.07476152662874314,-0.027657048760908284,-1.5329251454491388,-1.523187516849746,-3.9979826187461285
2560353,-0.05174419221373959,0.08309374800230394,-0.025959723285077004,-1.9252721317241674,-2.269873423858388,-3.897123731816725
2560375,-0.05077721445692949,0.09149473740695271,-0.023615858124400306,-1.803984199469672,-2.8739413153585165,-2.8276964972267606
2560397,-0.0526888812821118,0.0943129328923549,-0.01993388278868623,-1.421285691560797,-3.4920282326326992,-1.3559116824060502
2560419,-0.0588861780834281,0.09367695529428662,-0.016130635167323885,-1.136634655945028,-4.012677579713001,0.025197322480974754
2560441,-0.06823887520623288,0.09435641450236511,-0.013569987156837125,-0.8975924181861921,-4.027904722073555,1.255397062395788
2560463,-0.07694206476461489,0.09623848540163318,-0.012288580905405251,-0.33736118648076313,-3.2156943991648386,2.543972486459781
2560485,-0.08100249842154514,0.09419060362794159,-0.011714250866152907,0.6245975171355349,-1.7936384459823977,3.8424294190880905
2560507,-0.07932569567678405,0.08463211481577443,-0.012064801467241513,1.4878134017156759,-0.5165592859609924,4.557025562684854
2560529,-0.07437382801628237,0.07079038069192034,-0.01423272609670677,1.6138743997622202,-0.0912662769562088,4.024140849339834
2560551,-0.0699812842539047,0.06160583448852407,-0.018408089257272,0.9199640021358197,-0.5264617095242403,2.4173740106416486
2560573,-0.06875773157878022,0.06589660079537504,-0.023425535831854985,0.020661543136887575,-1.1032577480841004,0.9719872165296769
2560595,-0.0710952674625016,0.08647913938272889,-0.02777981016724583,-0.3738167323243703,-1.0638125049955944,0.9547871035102619
2560617,-0.07563810316406408,0.11799658290767771,-0.031125294073710313,-0.17383363014730419,-0.35039082995704207,2.3417248004497697
