timestamp,ax,ay,az,gx,gy,gz
2572673,-0.0027813272716679886,-0.003699040053032863,0.00039013181610777104,-1.3083673622629686,0.3282312218882384,0.5149927835067012
2572695,-0.0014240231686240279,0.005540451481322343,-0.002451827013163732,-0.7238508780161481,0.5111661707524702,1.2125760304906892
2572717,-0.00014550838345768675,0.00816120838606758,-0.0044255456065004,-0.2209545171995565,0.39712105725653374,1.2519313007956905
2572739,0.0007549967144018694,0.0032654031207358914,-0.004359155661370506,0.07961538963891758,-0.011220079860246942,0.5247465304626776
2572761,0.0009642320055042995,-0.0034437780224150774,-0.001851936573625649,0.10569364468832597,-0.43605686253542436,-0.47355752570846477
2572783,0.0006218128857608342,-0.005162799461780875,0.0015028097936878844,-0.02832221318261181,-0.6019615362755603,-1.1005350008018078
2572805,0.0004170782017582722,-0.0008211625928683821,0.0031221816805652018,-0.08209118656729414,-0.46253745480192865,-1.107683988787084
2572827,0.000852526950737048,0.004079362343298539,0.002145217915447192,0.07841437888723342,-0.19508755177625212,-0.7540223292725587
2572849,0.0011628916039550575,0.003624725719672396,0.0006633616967414059,0.3948497165678511,-0.0333821943118934,-0.4291012064350531
2572871,-0.00043229276930889233,-0.002420217817060523,0.0014216791234769684,0.8019552225673185,-0.08591152586369674,-0.23869554560128464
2572893,-0.004651807795278784,-0.008752343476733603,0.0038683500407563688,1.331397910722629,-0.2510049417668678,-0.015526996911578288
2572915,-0.009877782011769988,-0.009117548928923545,0.0027965739843841776,1.8261460280921151,-0.2981464594011698,0.31153866679955106
2572937,-0.014032555586674678,-0.0002655931365909095,-0.008457587404395658,1.6769344352382536,-0.049425416664695326,0.5324944879401782
2572959,-0.017315267165107645,0.015953099530694684,-0.0331562779767401,0.3001378244215726,0.5479191343785077,0.5183433766004353
2572981,-0.021402022426517793,0.031548989851737805,-0.06928542898528806,-1.861044503238089,1.5128657607976896,0.7382536718449708
2573003,-0.025161006650893474,0.03457726290723801,-0.1115449337070229,-3.16674013697806,2.7942155303085316,2.049031881266272
2573025,-0.022674589826665852,0.016975871115553456,-0.15355946921020772,-2.2106548421231746,3.8826097531824653,4.4986485209573175
2573047,-0.008798467866818479,-0.016326803968128634,-0.18750926633865292,0.5660281140177892,3.5151284324716983,6.330323945023394
2573069,0.010977552854449825,-0.04741102010853137,-0.20346053673858977,3.3103679539635404,0.3324280662071594,4.845609158653805
2573091,0.01856655692726186,-0.058918894642108685,-0.1927910221328165,4.9864657566964405,-5.4669675262530415,-1.0611199669106828
2573113,-0.0016036026137585804,-0.050536571986737784,-0.15557863952399545,6.414501435851763,-11.019619914844794,-9.249421873111766
2573135,-0.04015141919366559,-0.04141032787245468,-0.10525300944868919,8.568092147400819,-12.21944518643776,-15.589643408923736
2573157,-0.05997935453887956,-0.05371324248758569,-0.06329454036755053,10.476188422141586,-7.5579519294547115,-16.962040265673267
2573179,-0.02808270040717794,-0.09095820294666206,-0.045270440328068734,9.657455156814082,-0.9851931524903184,-13.120242575482665
2573201,0.04397943552593175,-0.13101721682261977,-0.049640755358338694,4.5885589386012455,0.2187679832547354,-6.225417557810018
2573223,0.09979890797895324,-0.14221809567837945,-0.06052610828272217,-3.6823962602641265,-7.887521665420749,0.8613152455334283
2573245,0.09030440386609366,-0.10960315746241925,-0.06261876943326046,-12.292243488464463,-21.042523117712054,6.124227636205687
2573267,0.02619255668049941,-0.04741816261689579,-0.05354853206038377,-18.564476476803385,-29.915304461829848,9.104827544667089
2573289,-0.03186418005180342,0.012515414130173663,-0.041509352365592535,-21.37295907927105,-29.273577908568296,10.486533883236865
2573311,-0.03894464987335927,0.04397158142808394,-0.03262366654128492,-21.23026044588879,-23.537231327705815,10.87518500383332
2573333,-0.013547240108712872,0.042973082325240775,-0.024060841221175883,-19.646555418607388,-21.992093725434966,10.148396727923702
2573355,-0.013458935525104404,0.02955240795175654,-0.010433320713973649,-18.213205859586342,-28.511642457022425,8.32046282699555
2573377,-0.07003243479357704,0.03265173787817223,0.0067167763092484956,-17.56064926775531,-37.220968339865756,6.54342072600767
2573399,-0.1549507163806686,0.06374083230859906,0.019639089086944866,-16.86996575469808,-38.83884489118745,6.125402863719746
2573421,-0.21088099764762433,0.10131176979324194,0.023743281197952524,-14.79535437481409,-30.492497153549145,6.426248550567596
2573443,-0.20758894965294653,0.10928483397924516,0.02286012321708016,-11.235156601032902,-18.467174493571548,5.022734584071838
2573465,-0.1654433189781612,0.07724789788270164,0.0245352205234146,-7.935917159023639,-11.54100218777495,0.8533170820534282
2573487,-0.12834816269635846,0.03634104333265035,0.032455455576277374,-6.879846631820689,-12.501220265237452,-3.696128202992917
2573509,-0.11950344233795601,0.026137240197953614,0.04445854707148085,-8.140275650376022,-16.641440171272258,-5.137776339567429
2573531,-0.1265824225914606,0.04960046645353219,0.0559509059747811,-9.857072124295277,-17.927408648650772,-2.943849703641885
2573553,-0.1274145524997507,0.07308325270163199,0.06357491956307414,-10.459080077338168,-15.346099562894635,0.1194643946794933
2573575,-0.12103205276991456,0.07155549319049764,0.06647044944322957,-10.301927965662118,-12.687033198976474,1.7377284795817516
2573597,-0.12577057863822186,0.05991804033903841,0.06578240696668866,-10.624590425761415,-13.150389308571764,2.66305871586233
2573619,-0.15060027838637208,0.07085309485536105,0.06368379676119988,-11.336129585536293,-15.69185268967562,4.973799066828525
2573641,-0.1795677469869105,0.11006112133085942,0.06253827193988337,-10.72609688058494,-16.875742717040993,8.80799629557385
2573663,-0.18886841114541494,0.1473547141375271,0.06387491577299395,-7.6317744763697,-15.130353649983325,11.855378938685243
2573685,-0.17344290420856745,0.15418658343177102,0.06699655338099854,-3.272174992180431,-12.173324998390298,11.83773791189779
2573707,-0.1513411560963399,0.13770508836442416,0.0689517575926348,-0.1823675789893659,-10.507052020081863,8.820733518843477
2573729,-0.14373531840059087,0.1266058299907247,0.06744141302093906,0.6336770248763144,-10.463994561386691,5.028606954205418
2573751,-0.1550953544446426,0.129962880058239,0.06394729119878244,0.6968447993154754,-10.189221915375992,2.7141406623059834
2573773,-0.17322816086013457,0.12742248900908812,0.062458253063693195,1.82981869084806,-8.123286682182043,2.3201253173076903
2573795,-0.184460479909925,0.10317866273380133,0.06467749599045626,3.687603085463894,-4.803588726221311,2.596672485796897
2573817,-0.18522347303353767,0.07298011775645545,0.0679426747991265,4.354516245346355,-2.0562941701808475,2.2697399437133794
2573839,-0.18030429126386285,0.06547540111805003,0.0684520740302678,3.061454008192811,-0.9189338790480661,1.287029276905732
2573861,-0.1748980891809169,0.08535053719436896,0.06526194762367761,1.2837736221293192,-0.8121858651364552,0.42359341438167125
2573883,-0.17125961978266804,0.10844724965215517,0.06037265751008063,0.915600743629256,-0.5543309528764717,0.12894558848109933
2573905,-0.17059084613510248,0.11218325066901313,0.055854025882541826,2.1019821161981573,0.3135021676827832,0.12147015887802982
2573927,-0.17399723494919433,0.09950552526935956,0.051951878058956714,3.3935459705972484,1.297165353206952,-0.06962586053670505
2573949,-0.18085045640464756,0.08898195793562028,0.047788558958563744,3.657218713231816,1.700247404712021,-0.48893125484955274
2573971,-0.1883117970834892,0.08940506486711249,0.04283351411980515,3.1988595006328353,1.37148579456464,-0.6951586637237194
2573993,-0.1936193189902742,0.09207812248783111,0.037123919742549374,2.978328345172866,0.7765850148151221,-0.22537344923825217
2574015,-0.19612658609464745,0.08577735264285873,0.03063554653348661,3.253533736990076,0.5017443861792039,0.8344875554265667
2574037,-0.19634512454009975,0.07150354053040422,0.02318700246760556,3.3713883756055303,0.7889807977064268,1.7688411675387778
2574059,-0.19370026681830577,0.05988284766623046,0.014876786207433945,2.7109802185529057,1.5149089398470472,1.9198869281427948
2574081,-0.18694487639586646,0.058373143234583584,0.006300633909488686,1.4362065703249425,2.422928427238191,1.4761676891021671
2574103,-0.17740218950560374,0.06507064823083522,-0.0015285499451200048,0.24248604492256437,3.2067674612350454,1.2793663070776358
2574125,-0.17018938596159117,0.07377419903145035,-0.007457873665743634,-0.3687032089430632,3.4755327146018065,1.695921071541624
2574147,-0.170201313015962,0.0809071373640263,-0.01073065062407865,-0.3778825616541366,2.9504352033489667,2.002820033795247
2574169,-0.17681667820344127,0.08570777901882792,-0.011295011688900571,0.018936496168248898,1.8542504521878524,1.2576392816477717
2574191,-0.18402318979665738,0.08638926521029996,-0.009436692834938207,0.6593426272365535,0.9456183709434013,-0.3607295029855938
2574213,-0.18642617383631743,0.08034410408931215,-0.0054707104611615735,1.325173363049385,0.9364373678330292,-1.5040029152658003
2574235,-0.18430078677604045,0.06921248472983131,-0.00028753757730491333,1.6327601535641376,1.8481044495521273,-1.0465291260432266
2574257,-0.1818725923623133,0.06096021683147558,0.004111370815735313,1.2794140593036682,3.0390395451484915,0.7366045148636301
2574279,-0.18110759395251344,0.06390492656058308,0.005452598703359244,0.4532347623490828,3.8494077758014704,2.513698664752647
2574301,-0.17874680941713428,0.07814824664460149,0.002880038895727462,-0.14954815494693413,4.120771629180093,3.227510498787829
2574323,-0.17064128599386422,0.09389631119077997,-0.002418963191229372,0.12043902607326051,4.141693095267719,2.9318160571860536
2574345,-0.15866672338553972,0.09897784810701606,-0.00825753093088419,1.2264962225499463,4.296902080051594,2.4892408536464523
2574367,-0.15175830522721404,0.08864223530866332,-0.012744417169779206,2.3735801431069263,4.838350635075024,2.732682457132719
2574389,-0.15859622844957336,0.06907531184635257,-0.014575510111342055,2.6212706001036303,5.7957367693506825,3.8846289112948313
2574411,-0.1786396755186188,0.052326614240037664,-0.012964406056305784,1.6341930733058405,6.888208139073308,5.417904936782401
2574433,-0.20038306366800324,0.04753860411495964,-0.008351609710172908,-0.0881592230288855,7.538662931271149,6.25593495777303
2574455,-0.2090734003455726,0.05509838111044662,-0.0030714396259931788,-1.6345003718329618,7.16600353376587,5.3712160266414575
2574477,-0.19784045061406427,0.06709890126613158,-6.499496833386499e-05,-2.3381445150278437,5.6218356111776835,2.6443180233833585
2574499,-0.17318152828410427,0.0736253075332326,-0.0002125542264507614,-2.1811320069401985,3.378761526617279,-0.7277690523603118
2574521,-0.14996095196581197,0.07081977348826148,-0.0015822239172160392,-1.725928919348828,1.2606033791653346,-2.915935741596932
2574543,-0.13996439963722596,0.0641145396392573,-0.0019777861985246043,-1.6245713543248477,-0.03925967990935128,-2.8093944723902444
2574565,-0.14411046047271617,0.06299177154737598,-0.0016174002278252437,-2.035158652226265,-0.2396750587903374,-0.758900689638997
2574587,-0.15455342380203807,0.07201146789234415,-0.002371103940809545,-2.4811360380518743,0.5068868039464999,1.9291832297017466
2574609,-0.16281377295415958,0.08731746164449287,-0.004777823296316121,-2.377934660395701,1.6305427176991045,4.015197666343598
2574631,-0.16545843648106537,0.10166539438783019,-0.007053564299482007,-1.6712952980134554,2.259798036333496,4.8655171938081025
2574653,-0.16369677534645427,0.11127109234269618,-0.007208951961751692,-0.7980806827072995,1.7212058339797067,4.446060557478189
2574675,-0.1599998927924261,0.11737416139085517,-0.0053098667432252755,-0.05833926126359158,0.17618395700268186,3.216218566614198
