timestamp,ax,ay,az,gx,gy,gz
2530521,-0.0016960872791237352,-0.008909699741945621,0.005908139915644092,-0.43050159571526536,-1.3700894595548228,-1.4254540215154636
2530543,-0.001154460210761436,-0.005002853605570071,0.0021896800380527036,0.18811618005959316,0.7369394793398908,0.19093583624044586
2530565,9.676510334491432e-05,-0.003786719635032774,0.00010212656833214926,0.5495003375635905,1.8425062048347303,1.1888199241173678
2530587,0.002010168493563903,-0.004107397473577249,-0.0003914807332623146,0.5348620624903323,1.6049718675715945,1.348459332386754
2530609,0.0038364815681767666,-0.0025853579583283107,-0.0006871370763118907,0.24980419688269348,0.47123644397696063,0.8576839351122297
2530631,0.004561780266800283,0.0017951103069621152,-0.0017850265677484141,-0.062188832273852954,-0.7623361724897283,0.05161233811318728
2530653,0.0033053835093579745,0.0063430610135949495,-0.0030497351729222933,-0.2288179356195456,-1.4460795975021783,-0.7000116519355042
2530675,-6.139932086399332e-06,0.007749204746736181,-0.002652370532621984,-0.24385335025603877,-1.2497714594331726,-0.9569089023505455
2530697,-0.003925023941172895,0.0053401882551962435,0.0005053353837602867,-0.17414551632318773,-0.22295365697816122,-0.4420635446570335
2530719,-0.006011666498598562,0.0011868747045310035,0.004985396697872783,-0.058438998789246924,1.0716674820419878,0.5351796267103618
2530741,-0.00493628306845827,-0.0021501851972509714,0.007362452885239834,0.07828485223804572,1.721628739767912,1.1790532145120018
2530763,-0.0020707022623926347,-0.003577270224127042,0.005241443070281635,0.17484649997176757,1.153781566982988,0.9822143270738131
2530785,-0.00019232583050581765,-0.0035973452695007343,-0.0003424607975118072,0.1512951160034599,-0.254771726742014,0.28580668817454036
2530807,-0.00035348133564819413,-0.003079833658717606,-0.005835819048571859,-0.030310088947238887,-1.418807058104983,-0.0849576042622246
2530829,-0.000983931269348628,-0.0020765879736604795,-0.008251065422243254,-0.34274219896675046,-1.501720184418679,0.361478848618135
2530851,-0.0006369201482737939,0.00022874371840685782,-0.0071514559738043585,-0.7141004786798789,-0.6049927498585304,1.4523840086597388
2530873,-0.00039873575068881173,0.004334150913400915,-0.004099574217351878,-1.039402005496815,0.48999935660793453,2.7016996698553584
2530895,-0.002238889169001301,0.009196339522466554,-0.0009606201952024612,-1.1909135199284968,1.1437677412374467,3.7477428633791536
2530917,-0.005559698638977605,0.012615249223591495,0.0010072337708452123,-1.08185217268663,1.3272392449385992,4.412388193986999
2530939,-0.0069154588781258595,0.01316260069821747,0.0009646584219738619,-0.7536838088167584,1.3627738484467624,4.5778489879151145
2530961,-0.003642938041484095,0.01147588099582176,-0.0018414653213957343,-0.3910456446850811,1.393921275877012,4.286649190809925
2530983,0.0026868292787770856,0.009465678579569169,-0.008065718638420545,-0.2654443230477493,1.2067150720298307,3.962383581481082
2531005,0.006768340520250337,0.008777664645427832,-0.018056564736640683,-0.6982354439391674,0.5223356578961417,4.212530184533404
2531027,0.0038256443507255927,0.010612582269968076,-0.031131530497722163,-2.0116256079955592,-0.6234609635636293,5.108384340037236
2531049,-0.0059087434614723,0.016709522412563106,-0.04432938650937732,-4.288771936689145,-1.8321292293744216,5.7328349457526215
2531071,-0.016680484535681585,0.029113352500740992,-0.052593230569251234,-6.947080763184967,-2.6619055918170926,4.871175047395316
2531093,-0.02210235064273364,0.047220808116310575,-0.05221868378612991,-8.571480341144166,-2.944785209857564,2.5178015163093725
2531115,-0.021494573710718553,0.06427916252621674,-0.04534944617832766,-7.555337913368463,-2.7365972173772715,0.5835502182300396
2531137,-0.020482794369476046,0.06832104997071754,-0.04054393866191535,-3.4096127941022365,-2.0328105955240425,1.5619194494428534
2531159,-0.023495924827971186,0.05003206138029729,-0.047718073861110676,2.364193429534752,-0.7835444587549728,6.064548959998104
2531181,-0.026031480354444136,0.012423943072747187,-0.07137308399646347,6.959997463346236,0.6036065869771534,11.805936375980542
2531203,-0.01768996638926546,-0.028015384713598376,-0.10718330744930486,8.253293720546699,0.8624592101395807,15.473257095245604
2531225,0.004253619277487257,-0.052921473049871395,-0.14355622069794574,6.354420162927782,-1.6575154626028754,15.77640527481867
2531247,0.025534671787886223,-0.05632404718107813,-0.1667961716200984,3.236404240264875,-7.65982129714786,14.484659406043468
2531269,0.023314994743798785,-0.046319121421077324,-0.167824444984316,0.879294113362515,-15.737798862811875,14.441068053362745
2531291,-0.013157624814012446,-0.03285809897962115,-0.1474123194978386,-0.12399634062970519,-22.58911586477498,16.838497102138586
2531313,-0.06992684535236134,-0.017836068733453822,-0.11584429292569125,-0.24613225813353762,-24.85850395035422,20.508388969175712
2531335,-0.11657468942892116,-0.00045700037489516704,-0.08597052298541036,0.17526129058348608,-21.458576650055484,23.472901863017874
2531357,-0.12799962786100366,0.011258540752924057,-0.06484113224924351,1.231077565247611,-14.590507467224578,24.83556272146065
2531379,-0.10194726520605743,0.0030877344214369474,-0.05100211274577215,2.486607117267145,-8.50905136423329,25.27784241665737
2531401,-0.060333091831754684,-0.026875184374272994,-0.038958673397013296,2.416955307670105,-6.785496941478141,26.005872151461453
2531423,-0.03423901818261739,-0.05736477019158039,-0.025642892055018462,-0.4554499645752918,-10.023987691944086,27.28143952099885
2531445,-0.0422955599364943,-0.05948528714194152,-0.012834897186215284,-5.795128641424565,-15.665364010410952,27.96647690458792
2531467,-0.0777363831700222,-0.024827109640745137,-0.0040981072327160905,-11.255781269298753,-19.935090607712187,26.64792005453246
2531489,-0.11526080539240798,0.025143428409623393,-1.2465925579386705e-05,-14.277235185771929,-20.442293127465437,23.329905394781424
2531511,-0.13261757114671413,0.058926523697981716,0.003028832604429624,-14.056990060428214,-17.564813708474407,19.8446475156003
2531533,-0.12746350889463737,0.0626181332358282,0.008954560707790259,-11.893543672289844,-13.754228709167528,18.247907246931067
2531555,-0.11514056729058175,0.047840610486062474,0.017420209277606,-9.893985381264853,-11.505002791452078,18.680812651655224
2531577,-0.11285665145227504,0.035639858754060845,0.023996039482248974,-9.392785701388224,-11.678060465472955,19.10559113140177
2531599,-0.1272084115763732,0.03714428590156391,0.02491919417967596,-10.297683208419853,-13.313742560243046,17.573805716132654
2531621,-0.15382560076514026,0.050952235815560756,0.02069587690564469,-11.52188705796241,-14.651462495719725,14.714923033200321
2531643,-0.18366285558800127,0.07268537046998198,0.014841556595745122,-11.827391725958893,-14.329709884358724,13.352031473049884
2531665,-0.20782333999675875,0.09822019384461667,0.010358909189066524,-10.469215499389993,-12.111816199442815,15.245927443694846
2531687,-0.22010685695003637,0.11831686100821354,0.008443718030723954,-7.540736444192852,-8.967853527405847,18.71694997485778
2531709,-0.2192781293604406,0.12046469975697881,0.009541364539540706,-4.0176118639083125,-6.431637209171121,20.158398074716064
2531731,-0.20913067804810226,0.10208894293647588,0.013514320664060333,-1.2947195241362817,-5.494084141355267,17.66340464868689
2531753,-0.19481006297583967,0.07692107405976151,0.018548722274435336,-0.28985801196990524,-5.932386149971504,12.5651798316505
2531775,-0.1796223512088106,0.062448687654786894,0.02199928358088131,-0.8294097978407449,-6.801004893366912,7.739141574361095
2531797,-0.16648594151155546,0.06341077551626507,0.023643831414997873,-1.9657080381141192,-7.569349677944759,5.2388166390098405
2531819,-0.16070635169761383,0.07145927822219311,0.02711720883919404,-2.8845239949791734,-8.563686145388958,5.399422095647304
2531841,-0.16763457476221214,0.07747059185056931,0.036779128721649866,-3.4309631300785606,-10.187041043439844,7.049672883068803
2531863,-0.186014847001389,0.07885252281618037,0.05297539944995713,-3.893720731612684,-11.95884747328528,8.132875794188326
2531885,-0.20589118973282783,0.07737992207821459,0.07070168090734147,-4.55856703397349,-12.688341524926402,7.046233657504912
2531907,-0.2160984629562706,0.07655044154296746,0.08312212546814553,-5.467479711781321,-11.613489801393408,4.240191800079314
2531929,-0.21399389172017247,0.08121825340015383,0.08674769197379904,-6.317791977999701,-9.09304661825267,2.164190261013035
2531951,-0.2065351259279896,0.09406395525082636,0.0837219735662713,-6.511841683394001,-6.117122221952168,2.8933236890435117
2531973,-0.20236945366294468,0.11040435920523506,0.07930003953436825,-5.576788925987074,-3.3947243275113905,5.788765579908682
2531995,-0.20419222267318995,0.1203190107322584,0.07680022968864308,-3.7184392147672902,-1.028495316594955,7.9490605224777156
2532017,-0.2080199050753506,0.11834657647557152,0.07460034546742543,-1.8127864629895158,1.1802814003011037,7.084674653213514
2532039,-0.2081275433877527,0.10901670074364722,0.06805556820662136,-0.6651167733502776,3.3940512834956573,3.7844682679697565
2532061,-0.20282535631415247,0.10129242943371701,0.05455931319340045,-0.29955370659700004,5.673250669018816,1.0116765171831887
2532083,-0.19652464564064842,0.09975779031240874,0.03653964555921057,-0.05743732463887344,7.98991193937155,1.4897108929974199
2532105,-0.19559355182005045,0.10301705160594099,0.019216052200585768,0.6728208938437666,10.121541754751608,5.308264730626053
2532127,-0.2010769279426519,0.10792156923644644,0.005941984190049318,1.9488227541158667,11.589672333751048,9.735765720808269
2532149,-0.20642815228900663,0.1115288131388207,-0.0034880241448128693,3.42213794430732,11.92193051699325,11.50231637181577
2532171,-0.2040858642309967,0.11021719321559298,-0.010493858148712914,4.726818853687923,11.087088359608593,9.605165146503994
2532193,-0.1938942477372732,0.10163083758834891,-0.01517089257989476,5.603891441224502,9.569682990101768,5.926821435098389
2532215,-0.1834093920880464,0.08854662064576439,-0.016569062927277122,5.866713435910158,7.925972135824575,3.122295145514237
2532237,-0.17973008931397666,0.07761683329966844,-0.014703191550984226,5.513570322206529,6.35087251257236,2.1890715670411645
2532259,-0.18243322216450056,0.07294984125813547,-0.011515056686462341,4.833924618375689,4.74955965492489,2.1688214480468315
2532281,-0.18530542011802628,0.07272877844364488,-0.009671008334246684,4.189787296492231,3.1218988112718975,1.6981096866308336
2532303,-0.18381747613276686,0.07251706533242103,-0.010502049685874787,3.6513520352761044,1.741039830298,0.3733404689284764
2532325,-0.17930541609972797,0.0702089087590096,-0.013180087820988718,2.9559795988849364,0.9499425130092418,-1.167794523803068
2532347,-0.1763155925151105,0.06779796468771614,-0.015755203833838615,1.8444592724054814,0.8234227399466856,-1.9731990900037135
2532369,-0.1778256015163998,0.06977086832262473,-0.016814772964149464,0.3954749173499565,1.0460600871588255,-1.5204784646480776
2532391,-0.183388175703916,0.07911827659297939,-0.01639400694253251,-0.9283480022728058,1.169089484300016,-0.09682707007127654
2532413,-0.19012142705580126,0.09317602652634209,-0.0157499931771457,-1.5415223150845243,1.0293850650817002,1.3621715002621015
2532435,-0.1945087885752574,0.10401393033602836,-0.016171341941488122,-1.1655090621338902,0.8598536664790498,1.9485956349186453
2532457,-0.1944687077223264,0.10473450461132218,-0.017505612910037854,-0.12076922906968215,0.9262222764237598,1.4921610706638615
2532479,-0.19089301306642012,0.09525590294889835,-0.017847327648693453,0.8459260013239788,1.141761137081215,0.638467881815037
2532501,-0.18661826823452188,0.08084241046569025,-0.015247908651453954,1.1430687825866965,1.181929707020656,0.16929328546548156
2532523,-0.18324607844324792,0.06582104412466473,-0.009986885463477365,0.8210989096734536,0.9472866481526875,0.2349855246758213
