timestamp,ax,ay,az,gx,gy,gz
2509489,0.004138942433326244,0.002409897150826167,-0.004124880694177576,-1.754636478866841,0.3414254396765192,-2.449835378787103
2509511,0.0021320283734163254,0.001402157511543549,-0.0020157842833489013,-1.1727399449940412,0.26952763697827103,-2.2627036296274032
2509533,-0.0005068409719908289,0.0033436199213932745,0.0006993854691157125,-0.5480386277314834,0.38785620541762056,-1.6382859691818084
2509555,-0.003055926988701767,0.007070089887477129,0.003316315822304014,0.11784980865407838,0.6225076109754838,-0.4919103486346893
2509577,-0.003871103166031001,0.007893042046206819,0.00437632974442452,0.7144020471555703,0.672976572320585,0.776430246969839
2509599,-0.0023113392355865884,0.002924112650578331,0.003325139230913885,1.0272213115100348,0.32377206787210533,1.5592586742188659
2509621,0.00021870431591717037,-0.004617953969640175,0.0010553431411399578,0.9095987088952535,-0.28980635884440714,1.579081689185135
2509643,0.001671372094002891,-0.008027854414765485,-0.001176754638425021,0.49825874876493215,-0.7538632576163992,1.1493238098778902
2509665,0.0015507634487707364,-0.004750855259619515,-0.0027667986336588762,0.18292659454396648,-0.7464119353810722,0.8406901917810896
2509687,0.0009878643316184686,-9.708033024384091e-05,-0.003433701243049801,0.24104076913094716,-0.343501711304152,0.9302751201127355
2509709,0.0006943455092641329,-0.001696309492216605,-0.0025215619182727997,0.47772552024486403,0.06016211316471168,1.254545462899623
2509731,-0.00017758606327865017,-0.010375012570217407,0.00048022452452248183,0.3347860372102187,0.13226881508444632,1.5367876507073808
2509753,-0.0024772035603674884,-0.018245189443830852,0.004594219636989626,-0.5294794398004936,-0.1182111277323971,1.6881609182108779
2509775,-0.004873732073413289,-0.016950391788690965,0.007212147144605584,-1.7948025259127998,-0.4308426243313158,1.7335703195813854
2509797,-0.004499260855638735,-0.0068464732183126445,0.0060575048212318395,-2.7342277679005647,-0.6093090237855743,1.5874775018043725
2509819,-0.0004474317131993674,0.00362408392322267,0.0015601400017351504,-2.9403761563229986,-0.7156566995286174,1.0694004312689718
2509841,0.004202041654652976,0.007430864446658184,-0.003095508238426686,-2.6816419376485943,-0.9695594619960272,0.1438451918714354
2509863,0.005080828494337972,0.005937046860113694,-0.004826563425640061,-2.478006784632592,-1.4868370187298154,-0.9470871557684735
2509885,0.0011450058039476389,0.005714497589421091,-0.0035182652887620442,-2.4560493163682224,-2.1256307947031794,-1.8083482388252439
2509907,-0.00421003842106312,0.009925557168568657,-0.0016009828034966277,-2.276112222020748,-2.5766905646642706,-2.117142150841839
2509929,-0.0064698627433205785,0.014548447708027129,-0.0008945849900257401,-1.6485223425942108,-2.595187170684175,-1.7678958152389328
2509951,-0.0038657339067445385,0.01338692591720129,-0.0007614669508446599,-0.7423975381311408,-2.1717037580118688,-0.9035306655107936
2509973,0.0015966275478989252,0.006133043616609399,-0.0002193794662865906,-0.024855971427360013,-1.5453193746232419,0.1155491606311781
2509995,0.006082946741185148,0.0005730861015688638,-0.001853158421143642,0.14417496501445903,-1.0960747898743202,0.7741884999054827
2510017,0.007009959847770219,0.005871172157771665,-0.01248118637942565,-0.45807728768647726,-1.1649595046834982,0.5508925668336945
2510039,0.004928973921852162,0.022904484315529317,-0.03824166941990847,-2.2488042268896997,-1.82443934522889,-0.787416025540807
2510061,0.002665282851657819,0.04075190410051515,-0.07811263253537622,-5.743314566162418,-2.731870425219248,-2.90108433586791
2510083,0.0027181747158286154,0.04315308755564826,-0.12277580723712143,-10.618738849754509,-3.3359235270896974,-4.968609609701621
2510105,0.005889635787588072,0.020936878805148003,-0.16068887840605722,-15.005651724592065,-3.4879840378793787,-6.2576808966306645
2510127,0.012075160760072702,-0.01844902291500447,-0.1856005081976849,-16.539967536922767,-3.9223557137970095,-6.679662696650915
2510149,0.02050194593315051,-0.05284210663451846,-0.19859534661883618,-14.653454273649103,-5.87367716589843,-6.6760967731592915
2510171,0.027491359937810118,-0.059958180790436744,-0.2037985938877036,-11.344031080468763,-9.880850256460366,-6.494410010773017
2510193,0.025006429056039822,-0.03470325424259836,-0.20276784536053802,-9.058746863968292,-14.835314104026725,-5.781563625995944
2510215,0.005333509112042569,0.005484875367829362,-0.19298771947641777,-8.209569289762348,-18.317471970777465,-4.165777205044157
2510237,-0.029453804110062758,0.032840739742682104,-0.17156238619912476,-7.500380028712596,-18.204280199854075,-1.9998442397526406
2510259,-0.06409634117989532,0.029485483624294435,-0.14026707325681087,-6.340432161291965,-14.435728662307845,0.11354996337800033
2510281,-0.08102256981104808,0.0004107859551120645,-0.10685018291316721,-5.940177686636047,-9.45163286074792,2.475952052051284
2510303,-0.07658278006370793,-0.02987392751304338,-0.0809398288451838,-7.832053136259753,-6.541098677354158,6.000547755110846
2510325,-0.06364832469718136,-0.036254450252093576,-0.0675548049690276,-11.86209259479809,-7.160626857577965,10.36937885662997
2510347,-0.05617076131764178,-0.014154729699410848,-0.06340557339843494,-16.018450817085622,-9.732133952254511,13.39150705649946
2510369,-0.0543029861592951,0.018491921721822225,-0.05969706718545579,-18.262234081817823,-11.402132504837542,13.034036339600336
2510391,-0.04879759522136453,0.042865802022063255,-0.04961532659060684,-18.35005637722823,-11.09207046353965,9.776683410576489
2510413,-0.03841903052073365,0.058178079025287426,-0.03314828308483145,-17.650236729863792,-10.514921071208484,6.334713990898808
2510435,-0.036460467053910026,0.07482116195257371,-0.01458109561490762,-17.401360714108517,-12.102047880542882,5.111384426644957
2510457,-0.05653772921063901,0.09690111580327296,0.0027405587768088184,-17.671675265940138,-16.345888465097403,6.284058654740736
2510479,-0.0956760820296193,0.12087106175735199,0.01749387912176754,-17.81955377783251,-21.419924608487886,8.350730165716413
2510501,-0.13648651365162054,0.1442636506883054,0.028353440367844956,-17.06928072752837,-24.944874399848995,10.166468958113148
2510523,-0.16463769415949872,0.16280812598466238,0.034189609086697256,-14.539575395896595,-25.589692908895582,12.18857470992729
2510545,-0.17857193662718013,0.1632621343142605,0.03605508798687772,-9.80821461236754,-23.23596604660366,15.772326407109146
2510567,-0.18179995938043628,0.13453624125918387,0.03650835504757032,-4.075966920349918,-18.532164316652946,21.378693495331763
2510589,-0.17341288109057817,0.08733942797432184,0.036711790167527625,-0.0119899703097745,-12.860717574844628,27.48771837354272
2510611,-0.15258347946933815,0.05076675910494474,0.035809045388776106,0.36387998350673884,-8.309384101074272,31.247403758897384
2510633,-0.12916321501715056,0.04599303208071047,0.03320095052878584,-2.5524303261676655,-6.703359097306214,30.373319639511667
2510655,-0.12135777346513701,0.0705158176737801,0.029942114466886025,-6.555368146158743,-8.091143120922625,24.844406838958815
2510677,-0.1389115700281578,0.10799471285542116,0.027561566690189186,-9.4948088391228,-10.379322993491563,17.034601661056925
2510699,-0.1708466288343856,0.14307976874540163,0.026613657306527438,-10.231779877496548,-10.987694903109096,9.998189986920806
2510721,-0.19306708427407182,0.16317286438374257,0.026898208322687422,-8.586418220008113,-9.1457634064693,5.266508743239081
2510743,-0.18925354322581703,0.1569150946856946,0.02839798031283952,-5.44943707756134,-6.510169771135066,2.2616343293501244
2510765,-0.16491660502554079,0.1232871496037135,0.0314375688081176,-2.895390149310097,-5.427359689829189,-0.16224534010179628
2510787,-0.1417926749912862,0.0815436917240665,0.036151320445295086,-3.1197874750479646,-6.590160498271106,-2.0536683986456783
2510809,-0.13798035658594748,0.06200577395108468,0.04198376450336628,-6.518801001739568,-8.40293170349029,-2.6417486858819217
2510831,-0.15195779128521897,0.08030139199237403,0.047542766330775386,-10.996287820495372,-8.60395954113491,-1.9274542264923338
2510853,-0.16555307471984138,0.1220780999175769,0.0510974943265386,-13.629588485529117,-6.487115526551162,-1.20013947080994
2510875,-0.16313211734390107,0.15655084062093086,0.05164939502751667,-13.127943901468031,-3.5433649517982504,-1.6742599877023272
2510897,-0.14730865040587435,0.16521749316350362,0.04937859866396935,-10.60229322092485,-1.9473193452597721,-3.07267657222644
2510919,-0.13459432910225191,0.15603219805741317,0.04462671235998836,-8.123059523817378,-2.4783475507929222,-4.022165831377532
2510941,-0.13694836680900624,0.15092397567001925,0.036938079283816566,-6.796173393663936,-3.983398418438593,-3.6438454160471325
2510963,-0.15093596390508326,0.16288870996011892,0.02613670828257804,-6.136533436455914,-4.762606476183044,-2.295320371853657
2510985,-0.1649271921900961,0.1858008830927885,0.01421950028812415,-4.897125577464772,-4.22667351624943,-0.8736977892958526
2511007,-0.17241088729879084,0.2027500611536493,0.004872848679141094,-2.315541614541965,-3.144436299383088,0.07780087550121714
2511029,-0.17566265792764021,0.20123288674337264,0.00041774688523993,1.220548575082669,-2.5505759601583264,0.5178360642459434
2511051,-0.17921134315102608,0.18189137242636882,-0.00026197042473314925,4.4656278579120485,-2.6814752298230404,0.6023982217194818
2511073,-0.18356169116708926,0.15588856891875957,-0.0003074976153691945,6.277179027748588,-2.923335231982536,0.41349479953838
2511095,-0.18565870469038853,0.1352358568357211,-0.0017288259025669073,6.414509572497401,-2.5541195430121606,-0.1732060558273567
2511117,-0.183295191044299,0.12575715611872657,-0.003960276273871417,5.468185050658995,-1.4109432211143325,-1.36129662526344
2511139,-0.17744873421037563,0.12790339760428884,-0.005134455374988147,4.195930831908367,0.0696440971447234,-3.0135101487602394
2511161,-0.1706087643482205,0.1395161303080144,-0.004120038671527339,3.1659773440432786,1.2788286587021258,-4.413064402321423
2511183,-0.16424851499164164,0.15413214075236542,-0.0012412946184125473,2.8700211873082324,1.8469752546217773,-4.668411156648344
2511205,-0.15887583836297253,0.16059292992008017,0.0023978591489355596,3.6121655004158773,1.8110487627215237,-3.3819688657834166
2511227,-0.15595516124884817,0.15132365778698303,0.005669770293387475,5.037350902983006,1.603356385143106,-0.8516101405197467
2511249,-0.15801803427530603,0.1313606641595663,0.007468639615977673,6.105522965818883,1.8532020156568056,2.161662246155475
2511271,-0.16554119195030323,0.11473809521340424,0.0065496945882385,5.882515859755795,2.9243429585994307,4.5936858960571225
2511293,-0.17417785204504688,0.11109097772696697,0.0018704051822189965,4.351323624148623,4.45154677763847,5.294854755459581
2511315,-0.17696731022562295,0.11817487960100106,-0.006706600446995779,2.3605772216784078,5.439354278786846,3.745516319044734
2511337,-0.1706256325746173,0.1270096579999483,-0.01791483446944728,0.8482368472031043,5.0652761790430025,0.7984025289238574
2511359,-0.1592750890220248,0.13124046620651283,-0.029216115039961993,0.17438961164964734,3.4841483982146646,-1.6137081793624122
2511381,-0.15098934355590096,0.13072921178852148,-0.03785065338634905,0.10001066619094778,1.764111860274793,-1.874857729921595
2511403,-0.15065458308718802,0.12817958589261744,-0.042357581355609415,0.24472179460665955,0.9878152351300481,0.0809962686372598
2511425,-0.15677311246539488,0.12440666061510976,-0.04320294913350903,0.4810480038397191,1.467385757579372,2.8959949313484743
2511447,-0.16480310123489353,0.11788027389865709,-0.04191223329469018,0.904040667582265,2.7979493319151247,5.119885651838422
2511469,-0.17222250724041505,0.10835403100014133,-0.039830783076597896,1.5267514250708212,4.451479949827385,6.460934640458812
