timestamp,ax,ay,az,gx,gy,gz
2446239,-0.0016975137496660047,-0.005804411117551446,0.0012535506257787096,0.19902349980471853,-1.661459721612012,1.5184363400402112
2446261,-0.004381937020105583,-0.0011839517835747927,0.0006451673573805093,0.43939646182785125,-0.40742387780235917,0.7322255381972498
2446283,-0.0034711411950278685,7.772766452673923e-05,0.00028198813804013997,0.5873065331568308,0.44853302796275035,0.35533960272281034
2446305,0.00017228643781432818,-0.0018058628269909981,0.0004074490812033521,0.5599059461559356,0.7289768338612812,0.4898696801193255
2446327,0.0027204613186123223,-0.003911245413623245,0.00099463884948025,0.33867694832397616,0.5853262807157893,0.8201774412908036
2446349,0.002555570776569522,-0.00393408596692582,0.0014589961723894924,-0.001021160076025391,0.35927400758442907,0.8226845366193205
2446371,0.0018446162295396298,-0.001610247004976354,0.0009408957377843598,-0.33595155160311074,0.259186580879058,0.18967498192676052
2446393,0.002639199994552352,0.0019747560981447543,-0.0007604398239109257,-0.5420606061427077,0.1913067646096984,-0.8716250127521731
2446415,0.003472511792978722,0.0049386364917424225,-0.002538102608550407,-0.5078643272467074,-0.030709999772860267,-1.7542958131781383
2446437,0.0013980831927195533,0.005215874010703883,-0.0026940028813884753,-0.19308816894584147,-0.3629637367077286,-1.921236912792699
2446459,-0.0035654651260406327,0.0023188175640208326,-0.0006288192173793013,0.27991012338074966,-0.5343622049198298,-1.327363462254363
2446481,-0.007793837916764266,-0.0016206977222191713,0.0023336754218479154,0.6688239902565734,-0.36940387392185053,-0.40577628419688944
2446503,-0.00800390750333244,-0.003912095748226529,0.004079324609359363,0.8242280198987973,0.004919788706044828,0.3398570297597097
2446525,-0.004637004669801386,-0.004470118698223559,0.003597005298123797,0.8353341611777181,0.31589047529993114,0.6910757490913064
2446547,-0.0005944155255442879,-0.005701082592573584,0.0015827855653234753,0.9087233737435142,0.42960676204422465,0.7458251597402389
2446569,0.0025150060970614207,-0.009071979237078583,-0.0005493068782725562,1.0984051720878623,0.41615138504208443,0.8376190695174397
2446591,0.005234320526362571,-0.013156832964510111,-0.0018158606544168006,1.1491923815501488,0.3779769205788283,1.5058433628813606
2446613,0.0073289889431066265,-0.015747419940716517,-0.0023753760143259217,0.5873972002282968,0.31023253016534774,3.1921587228882964
2446635,0.006453550180812247,-0.0166637933115911,-0.004808212873944379,-0.9281259583814364,0.17209468287273189,5.537180241967395
2446657,0.002025090402809834,-0.016990534459831615,-0.01577053794944504,-3.11115587521752,0.031116740461327078,7.090848826911265
2446679,-0.0008697615809125424,-0.01605514950331044,-0.04466389623564359,-4.828940620730399,-0.024863835865888594,6.283574134044207
2446701,0.0046864013593793255,-0.011824032837430793,-0.09638455923798554,-4.677280541110976,-0.2659688908053513,2.980835523079275
2446723,0.0182210127940047,-0.005987560829746043,-0.16215485001932603,-2.241471259757581,-1.546955192463279,-1.1358413012586226
2446745,0.029472929331531336,-0.00588047831473056,-0.21906713540031159,1.0192543038998008,-4.867878366832801,-3.929890097787843
2446767,0.028402225614295094,-0.01607776191847941,-0.24381473825238487,2.4416391865247307,-10.474842068080585,-4.418956700087363
2446789,0.016195619516985588,-0.027457411448960703,-0.23019202682368628,0.29757861568125454,-17.41586297781355,-2.937881629712137
2446811,0.0019637747334615503,-0.021273738687469335,-0.19226662229010308,-4.3596401252933195,-24.09021699895755,-0.0591129008588171
2446833,-0.011801121867716875,0.009729202443721463,-0.14947433372201635,-8.183291459440238,-29.19222904477001,3.9776066926633367
2446855,-0.034033356631401585,0.04712563805821274,-0.11089287425960546,-8.410274184272868,-32.0693041745172,8.439068628978468
2446877,-0.07049198401488016,0.061455096875555656,-0.07531833220907808,-5.506001789025434,-32.476009481341414,11.346620489995656
2446899,-0.10943303008477262,0.042210123604663016,-0.041943497701521386,-2.70559614559303,-30.548426838934652,10.759064354253097
2446921,-0.13025937934869752,0.007456378514952334,-0.01468205580852083,-2.775831206722864,-27.156254609763632,7.216365727793997
2446943,-0.12596604157739796,-0.0170973282365131,0.003645847134736617,-5.573250044514862,-23.783227134434522,3.985914598578157
2446965,-0.11068938909093215,-0.020882419545300693,0.015803540312775404,-8.975854934976589,-21.607593178592765,3.9318382478379865
2446987,-0.10473060161541321,-0.0078021675314137945,0.026449004404686345,-11.473218124603012,-20.70364336770978,6.406499501556451
2447009,-0.1167590612625413,0.01648019813468411,0.036737051487934144,-12.936097122698499,-20.200233272911284,7.993551543129032
2447031,-0.13978968948297196,0.04619715433222735,0.04448369135655123,-13.27994469959424,-19.062204349148587,6.221163990470287
2447053,-0.15830107189578263,0.06946782846270634,0.04759762985272953,-11.865519206141602,-16.733868122260613,1.9467478650959018
2447075,-0.1584475749850702,0.07359524362368706,0.045450873902226775,-8.779074358448916,-13.435837151692677,-1.7537608191617238
2447097,-0.13853935218887936,0.059684201014862416,0.03873060359274388,-5.691402402746158,-10.162620070665188,-2.366308923350863
2447119,-0.11432185213158397,0.04474801516626495,0.030471190279835667,-4.457508018713638,-8.141221865721048,0.29136495245024835
2447141,-0.10923562471036981,0.04479130896506551,0.025980991420939695,-5.061401860782318,-7.747155581573857,4.250744413655563
2447163,-0.13238400082272486,0.058962737669000974,0.02841318878643716,-5.531346290319543,-7.803339228262421,7.040382207913692
2447185,-0.16634010873122956,0.07269843473061167,0.03412259270275578,-3.8439624891889257,-6.351435766302538,7.595124160678511
2447207,-0.1817405340163998,0.07258775776624837,0.03531262272912926,0.3669101276428066,-2.520670380090485,6.811277215610821
2447229,-0.1650040098756668,0.05526073071234459,0.028503865341211118,5.677108932396611,2.4052412215868832,6.121594644085939
2447251,-0.12884370536524448,0.026504369077078573,0.018411924134215125,9.856225553734497,6.0037342180970805,5.701561068568601
2447273,-0.095967546845887,-0.002079904510789936,0.012329582729334413,11.089522271306661,6.775842976908944,4.503127357437507
2447295,-0.07735859500851075,-0.01705409558003625,0.012610779477632363,8.997019527308119,5.056848917492849,1.9263047501295023
2447317,-0.06905457932195624,-0.010425306942539235,0.016396537162587575,4.97321482468786,2.0411196925328077,-1.198622573526739
2447339,-0.06583932354829283,0.013858992818050968,0.021155641048115712,1.3874083955521994,-1.6098907470511956,-3.46663572000634
2447361,-0.07079164619289019,0.04202723653080665,0.027526057980492454,0.028324101039322036,-5.9056899119849025,-4.220584962659855
2447383,-0.08882411249096349,0.06069404287864347,0.0362694098076947,0.9922283021268646,-10.606033448928867,-3.7679513843172106
2447405,-0.11553517125870899,0.06550900569762814,0.04510493864693929,2.8864638933703097,-14.792405651939129,-2.7325621651763528
2447427,-0.1384807976080353,0.06062545592043124,0.050831223873491725,4.066742635390391,-17.57836353129345,-1.6342842268634725
2447449,-0.14969765056058285,0.05164554511187855,0.05364272284532494,3.80656554405563,-18.886475565023304,-0.8897302482507127
2447471,-0.15302947257168648,0.04114031594011023,0.0570082631468437,2.4941604372605815,-19.20139411342121,-0.6623565244777756
2447493,-0.15815987965970865,0.031080920396679444,0.0629899471855281,0.9356566024905004,-18.752363878624493,-0.5336981065194791
2447515,-0.17026333138997002,0.026336183986252367,0.06937370342562002,-0.34491843120538057,-17.292704814083155,0.3166730596615717
2447537,-0.18662180683853066,0.031600927030226926,0.0723202905993926,-1.1687731947740034,-14.6592185778927,2.240760909163619
2447559,-0.2012090160880323,0.04446972317015366,0.07090268741640342,-1.4321977681137028,-11.221564279429685,4.478717511728073
2447581,-0.21053828191040444,0.055090441930076124,0.06781215852145836,-1.119248011080156,-7.555026114187312,5.635917864756302
2447603,-0.2150167441386542,0.05518532998566484,0.06558568222769426,-0.5643714715764551,-3.7352416949452287,4.907637553792177
2447625,-0.2159852189817061,0.046509286836346087,0.06305322408155246,-0.4231097073127148,0.7536648740506157,2.815874612117175
2447647,-0.2131913613422173,0.0390903433798936,0.056218605499643234,-1.1693949235376895,6.131919756643601,0.7343521622874107
2447669,-0.20572531176044437,0.041693542272836066,0.04266170731332049,-2.5842074050327004,11.381918695250528,-0.3463052623365587
2447691,-0.1940994617529233,0.05457244238285379,0.024735034659887304,-3.7900726988228173,14.591604890032318,-0.6294346251531466
2447713,-0.180194116501355,0.07009890445645345,0.008414593254761267,-3.870359517542614,14.6171945054902,-1.0717511300238516
2447735,-0.1658677953020235,0.07847336468219983,-0.0004186135300121663,-2.579591948397428,12.39058184939571,-2.173103734987952
2447757,-0.15253992525857765,0.07348975498518172,0.0015336548758386468,-0.5782922669746846,10.312358818490887,-3.3697164493952485
2447779,-0.1412304144342314,0.056417953593390274,0.014479695377352273,1.0087927685345806,10.173210654618902,-3.6222714437668992
2447801,-0.13168916496367983,0.03712115145206682,0.03500183314533369,1.4232695231714532,11.569994088897625,-2.3384540492277526
2447823,-0.12188635726582417,0.02973442640634003,0.05553190154247652,0.8952988788699545,12.238373503783338,0.36290538925574295
2447845,-0.1098202253657157,0.0423346438801252,0.06692376233125474,0.5325347475954941,9.979942328335852,3.954674595501149
2447867,-0.09674467482253782,0.06792728349241581,0.06450319462072293,1.4501793998974004,4.578028582497194,7.759208220377936
2447889,-0.0889220948706875,0.08762528133494678,0.05119946381154953,3.789145676701443,-1.8317685907050048,11.07807703669372
2447911,-0.09555926077464091,0.08604127113841915,0.03185541286440355,6.5075395996256935,-6.103482174146917,13.41341927018239
2447933,-0.12197608578302446,0.06364586700535517,0.004611528090235347,8.192244772444473,-5.920513703830275,14.571850598846765
2447955,-0.16138767293754108,0.0333431187851357,-0.037617711586473354,8.15341205213853,-1.0362829744597588,14.438454938445634
2447977,-0.1950848841784778,0.00765680466802759,-0.0945715175679628,6.826208777194505,6.263353979714209,12.89410567347599
2447999,-0.20641763856533388,-0.008426542030944211,-0.15046449039352888,5.217150039515495,11.815065523686004,10.231902521460164
2448021,-0.19608979189768347,-0.015605829455081282,-0.18193481728519206,3.9527162405020517,11.981295928661297,7.383098008344894
2448043,-0.1800711159287831,-0.016622569997329972,-0.17460046681117505,2.740345334128532,6.613006096861563,5.244054856871045
2448065,-0.17194173768625964,-0.014037394505751087,-0.13245610858516604,0.7118290401846827,-0.565733219204051,3.756308897346078
2448087,-0.17108621850664146,-0.007561376252510153,-0.07429937962404849,-2.5922687572336462,-5.288586097579312,2.02108138235639
2448109,-0.16880670543384543,0.0068762169761606975,-0.022488483717323544,-6.476884151483418,-6.5176016134177726,-0.45235828833116054
2448131,-0.1618077203858928,0.03200028508570148,0.008566074883375886,-9.374567861208465,-6.6325783020176186,-2.8029040928552633
2448153,-0.15685592183462377,0.06188512749973404,0.01826581197838543,-10.023576169367878,-8.227241048593498,-3.5493466646078886
2448175,-0.16363431781549406,0.08259086632164993,0.016722789265385528,-8.513909167946412,-11.315769578802884,-2.4476193511016318
2448197,-0.18567933638661896,0.08229982507361627,0.015607090341076126,-6.2118386986810314,-13.649550554096255,-1.243533435537651
2448219,-0.21890402149382737,0.06004908181578151,0.020756298394067108,-4.55799136560527,-13.26026158710198,-2.05622963074707
2448241,-0.25683407811807885,0.024863491738588615,0.031088696538006277,-3.8299333859538827,-10.491018174469087,-5.016937250104883
