timestamp,ax,ay,az,gx,gy,gz
2516485,-0.005161591973665693,0.0013751023130797258,-0.0007327784859890244,0.6684365703911851,-0.7652531333793171,0.07366643063162075
2516507,0.0014024771832222072,-0.005455977234992192,-0.0028076186293690855,0.5299806753187591,-0.7413760591346581,-0.8330623972240262
2516529,0.003600073527109303,-0.01014511689542943,-0.001587635538917758,0.0821296967980779,-0.803706738193155,-1.2007101184883255
2516551,-0.0003164121318065733,-0.010754380217754508,0.0031172837692063286,-0.6311266087106284,-0.8208255674349545,-0.8960114122930993
2516573,-0.00733182443016365,-0.006663580086703764,0.007868542662387866,-1.1774811865067578,-0.5086391597256223,-0.22242290088158106
2516595,-0.010966283691892705,0.00034822552344980647,0.008394154917376065,-1.1044165857639423,0.22815014959180405,0.39230347221034245
2516617,-0.006756883409403229,0.0067364814041442275,0.003538364266558301,-0.3926356084757298,1.0500481972448201,0.7158852790113613
2516639,0.003177105523509984,0.00972152879808091,-0.003427098621120668,0.4588616974279356,1.390355968219659,0.7618298529777752
2516661,0.01194190708104029,0.009480084320704104,-0.007611425127306009,0.8380067611990203,0.9765827100974819,0.6494125232152409
2516683,0.014328680670034392,0.008694979833530207,-0.006696017179922431,0.5388098798027677,0.11628431037537433,0.5069227455994618
2516705,0.01111194042751671,0.009997612457488491,-0.0025798780339799667,-0.08633496251184614,-0.5727859190453658,0.45469297222707533
2516727,0.007508099918961577,0.01398377909536652,0.0005786494839915224,-0.43851763748616845,-0.7122428204849296,0.5478074053182029
2516749,0.008158399370181623,0.01932966522325554,-0.00015610145564884116,-0.15566595074261916,-0.46646855183825703,0.6607964564466405
2516771,0.013173169120159974,0.02434237175713657,-0.004393191903677787,0.5700229211793912,-0.36750290547867037,0.4186544638702318
2516793,0.018003917806696686,0.028560589187345747,-0.009771613132638812,1.0586781926028765,-0.8453707650320891,-0.7054713612871838
2516815,0.01716490834330585,0.03271924906280615,-0.01650124836327118,0.6992464823489831,-1.828311734181931,-2.999220963299376
2516837,0.009462493896060529,0.035748521311482206,-0.03077599866417364,-0.2665254382859046,-2.7352346839790624,-5.887800889672532
2516859,0.0008889858524507452,0.03141130657983113,-0.06148376145770666,-0.5776788515188545,-2.9894978371458643,-7.689299855370691
2516881,0.0018422777745326572,0.011362842635347734,-0.11103460233418377,0.9199779637817049,-2.7903070061089563,-6.562479893675529
2516903,0.01877660626857929,-0.02392768182463987,-0.16928839744491717,3.6524071329765784,-3.4353414617399514,-2.382005637115718
2516925,0.04558987515510756,-0.058081037908516354,-0.21779064223909994,5.191042867950561,-6.5351683774253235,2.3079639798285996
2516947,0.06299052685082397,-0.0687576428947999,-0.2410107040427768,3.359388121825064,-12.357441989907949,3.8824223763118586
2516969,0.050220750515605095,-0.048508469551643243,-0.235167952314679,-1.466887912979791,-18.70336311958984,0.7896025394539029
2516991,0.0028675635402149896,-0.01329161647357072,-0.2088900277798497,-6.495289218740787,-21.8034133701082,-4.793935599824396
2517013,-0.05858783380324983,0.012603330471075112,-0.176729047968182,-8.93375911595004,-19.00061977644749,-8.662103448673433
2517035,-0.10027133179609511,0.018252625104941436,-0.15041920487285235,-7.995107113626167,-10.881443895578805,-8.21014215502335
2517057,-0.09862336597233676,0.010741516238835394,-0.13314857180909115,-4.747528367881463,-0.7740141580013729,-4.76188778937585
2517079,-0.05546324169085977,0.0015156168695969491,-0.11979386221535422,-0.770974924167844,7.574334144288378,-2.494743546693961
2517101,0.0062659672510861335,-0.0069565295415223724,-0.10206111349493044,2.6344185456366995,11.544994999317764,-4.694202876379418
2517123,0.056968765792489814,-0.020822313086139653,-0.07449045207116936,4.386048297958898,9.70565989017694,-10.525983652377597
2517145,0.07323068910681708,-0.04416761512240804,-0.03762614547021586,3.5662846599571725,2.0700945750838198,-15.540555232524095
2517167,0.04777838803781138,-0.0694583964234223,0.002638685852536678,-0.1540817127385657,-8.881091715172708,-15.821758339736824
2517189,-0.004748072232433887,-0.0785708823548813,0.038331292831284926,-6.045958376632106,-18.567287422645215,-11.71050839774301
2517211,-0.05497142785325879,-0.05641605838193115,0.06347040577734292,-12.407171147630798,-23.344293031533603,-7.174978133786476
2517233,-0.07907091167205144,-0.006687692928999704,0.07690820608501446,-17.328629914965187,-23.527496289679775,-5.715075071917539
2517255,-0.07463120633645841,0.047711280026363455,0.08194037092385949,-19.717536253278595,-22.776322824276352,-7.414468811996689
2517277,-0.05731310547094203,0.08318680881119501,0.08283840005795487,-19.806499711714192,-24.336360038853073,-9.793103972843994
2517299,-0.0453785906794892,0.0935605082115037,0.0817486503508673,-18.642428210910374,-28.249965441562605,-10.57135295051476
2517321,-0.04874211319523521,0.08890321150699669,0.07903152245742917,-17.078552381912168,-32.09015559421824,-9.260369756277573
2517343,-0.06779121489921919,0.08146301356709972,0.0756362516771079,-15.378809101615138,-33.6782074935134,-6.910161952116478
2517365,-0.09608466014749519,0.07760541772191906,0.07376443594894487,-13.60061458230291,-32.74254608153417,-5.1046013610532235
2517387,-0.12307875410475413,0.07927255632953162,0.07494378983010756,-11.816806952039846,-30.416280271020533,-4.868014252127505
2517409,-0.1384809619547473,0.08472867726389445,0.07813120627745722,-9.831287590785026,-27.83743227845522,-5.754796983311344
2517431,-0.13845138897617196,0.08685961703798803,0.0802156895809478,-7.255747039336664,-25.483446831937844,-5.897084065006713
2517453,-0.12904664336659702,0.0776615013525643,0.07848543591867571,-4.335123615538103,-23.533449598759898,-3.4702080114159117
2517475,-0.12248049036471334,0.05872889086144621,0.07268474704128874,-2.3668951913985423,-22.33771052288318,1.5340152001751566
2517497,-0.12834411795971448,0.04439391466898062,0.06488817818167518,-2.6778344365155866,-22.221029963002195,7.022133017528539
2517519,-0.14734688782316915,0.0505013242500752,0.05764042786033678,-5.084480003285659,-22.88667249907095,10.377295314184188
2517541,-0.1724313371708319,0.07964559830721334,0.0523209023945475,-7.68372498971489,-23.219993487319613,10.45238256149589
2517563,-0.19458377045569092,0.11760634756162114,0.04909066290618303,-8.317252398859232,-21.811831692707706,8.293523719688723
2517585,-0.20766520892138904,0.14342159259375664,0.04781536331389344,-6.248854820449253,-17.83924962407805,6.137300535948261
2517607,-0.21013069897484252,0.1446034882600761,0.04819298781703233,-2.596081598004336,-11.710945934957014,5.627251514637076
2517629,-0.20446566411110736,0.1264415635397753,0.04868283797668165,0.6654907114645925,-4.979654536098743,6.72500651904344
2517651,-0.19458342635638795,0.10719990738845095,0.04629044358707131,2.2227082742210467,0.571128764896236,8.100625240174448
2517673,-0.18248494714398417,0.1012892094104739,0.038806405285627,2.249596734880606,4.009489075482056,8.513435350290175
2517695,-0.16819514582200565,0.10627377517049409,0.027457593055055685,1.8646384036017236,5.534560154841862,7.907587270128094
2517717,-0.153974713223265,0.10864430100986137,0.01643698049339645,1.7954317782478308,5.804092097395582,7.212518063104781
2517739,-0.14657999573306552,0.1020219327863824,0.009224945949279207,1.691856498224523,5.237197844153857,7.055329072296216
2517761,-0.1518860317177431,0.09541399224866728,0.005522269397797161,0.8306787788690223,4.072762531176611,6.8397706216833525
2517783,-0.16680542042581964,0.10153812643699951,0.002008422002938858,-0.696231125022498,2.8081850144355593,5.43834233695557
2517805,-0.17972359604785043,0.12032513618321947,-0.004009592792546571,-1.7943087449344681,2.150397625516004,2.8404324404373575
2517827,-0.1814062194299899,0.1377013179726419,-0.011992374713223126,-1.4412318726664168,2.4317390299110997,0.6423312071120139
2517849,-0.1740285470841617,0.14030681838714643,-0.019276218631524518,0.19670148593805262,3.2977037495461263,0.4558899068341118
2517871,-0.16698977798770867,0.1287082489068988,-0.02439869568556861,1.8633875957787633,4.109605831116973,2.0209163205756826
2517893,-0.16497220776876842,0.11496802168482002,-0.028698731900265277,2.4336519695630585,4.517470732770685,3.412927884634653
2517915,-0.16363723690338794,0.10861412727173644,-0.03434920211394313,1.9330146238163688,4.506480294664726,3.1457686599228025
2517937,-0.15775651470786434,0.10722038139477386,-0.04120919610867345,1.2623392014223342,4.042142981731972,1.5944392810581418
2517959,-0.1502002960335441,0.10152570879310603,-0.04628229851820006,1.0106607382082116,2.9749630035759793,0.18940655963568528
2517981,-0.1495492303682825,0.08799139464483373,-0.04650821129548186,0.7745449746237983,1.3959204573953845,-0.3338290272312486
2518003,-0.15907441490292534,0.07375378666088767,-0.04179819124661776,-0.2595586477044954,-0.1022500093607323,-0.48370419655005503
2518025,-0.17106584633266314,0.06900592291144883,-0.03512631878508235,-2.2366562748628103,-0.7778061271421552,-1.017205016757386
2518047,-0.17409663968568945,0.07657743086389224,-0.029895651089527228,-4.343717978212882,-0.45027355481295556,-1.8981691972381243
2518069,-0.16491544300483488,0.09020033131187476,-0.027482481951070146,-5.593750900892794,0.23638503709319428,-2.4584495001668363
2518091,-0.15125600845245432,0.10166358957635253,-0.027051446810241134,-5.742741351952496,0.3673578835994282,-2.3323552145142608
2518113,-0.14333280251401936,0.10767231095631896,-0.02705039736874363,-5.349719816141393,-0.44290596393628606,-1.8482676421010786
2518135,-0.1447476486505235,0.11000792862872971,-0.02648300597208895,-5.046326948022772,-1.825108399773978,-1.457847587376956
2518157,-0.15195508674145206,0.11165356975502704,-0.024986881262734996,-4.916554587152828,-3.1016735423170907,-1.1039462503277664
2518179,-0.15988832867925715,0.11431959249275807,-0.0222678204118005,-4.583184300815427,-3.8223438797790403,-0.4094880055285147
2518201,-0.16607755292637286,0.11806095287997995,-0.017917330507647124,-3.725472810856611,-3.9481523146544237,0.6195771986054788
2518223,-0.17060896240679893,0.12128541815098254,-0.011940552452570953,-2.422743974476666,-3.73630190732774,1.3760297020727923
2518245,-0.1744620222095163,0.12211986415366305,-0.005459099438816262,-1.0783907067579341,-3.507896419505328,1.2603332561528666
2518267,-0.17834663110557888,0.12151998019545811,-0.0007973317098509821,-0.07387041364635456,-3.3819434499164016,0.3916795284439645
2518289,-0.1821920328476458,0.12353366044685314,-0.0004382802864761428,0.5656305792649315,-3.139759122862676,-0.4384121840486008
2518311,-0.18514078159980468,0.12982030010433815,-0.00514185781770477,1.198593273422443,-2.4320601741570225,-0.5388122532813084
2518333,-0.1860331081469624,0.13519851997450694,-0.0127749468925558,2.1792917171243107,-1.2067838416518981,0.028008052054050003
2518355,-0.18404920581945794,0.13230972760681747,-0.019572268565430654,3.399954866982238,0.11762408590583437,0.5761253834111368
2518377,-0.1791208904688824,0.12059906212043962,-0.02319189202722843,4.301070412858961,0.9804443495546531,0.4852518928856297
2518399,-0.1722053736184001,0.10730581825840858,-0.024328943696867868,4.385501607600319,1.1603684452038718,-0.2783027417495036
2518421,-0.1656043303749972,0.09918294428124233,-0.024938837263994994,3.6607119900951273,0.8962179599680357,-1.1875154205771377
2518443,-0.16260297382493535,0.09620060621218054,-0.02545212029948704,2.5542102340108284,0.5896876061561755,-1.559166649878645
2518465,-0.16546868245636054,0.09412845875927338,-0.024709791430294236,1.4847229113102487,0.4706505141603624,-1.02289417969234
2518487,-0.17296788748807507,0.09066924255489384,-0.022391822858583356,0.5630935627790824,0.5155292027785789,0.2002390508082309
