timestamp,ax,ay,az,gx,gy,gz
2453257,-0.0060376833891676055,-0.016064909228331006,0.004943124991741237,1.668018350544582,-0.13944130015927225,-0.725708970397573
2453279,-0.005831335589274842,-0.00327617872867752,0.006359765167587616,0.24212648266724826,-1.9034925125299647,-0.9618469331461561
2453301,-0.004983911211323117,0.004048000403166245,0.005173178256311696,-0.40487825168380476,-2.5169768962998,-0.8999533406632976
2453323,-0.0035157532336499643,0.004751282233444771,0.0013684174349521004,-0.18410355915542545,-1.7503377731798497,-0.5464510562082808
2453345,-0.0019814880015242018,0.0021700588526726806,-0.0026620416628130323,0.34062322156676195,-0.31914463187643827,-0.12438288417891318
2453367,-0.0005533798829820392,0.00026886007572490985,-0.004690553058528571,0.5711046437320689,0.9000306142660925,0.23483400683189587
2453389,0.001402275677642846,0.00018792739685689002,-0.004563686789930439,0.3272647526153685,1.530005419509807,0.5460657709835328
2453411,0.0042287989913433795,0.0010390548930313834,-0.003511279419414306,-0.23056986782834316,1.6396176824877824,0.7631882413097751
2453433,0.006653619891693185,0.0029075389073626393,-0.002267990357800309,-0.8664122412458701,1.3652353915050528,0.7572022087048154
2453455,0.006518752191856393,0.006966405822358162,-0.000553513033719852,-1.33470957960255,0.8386055623240081,0.5925235502971072
2453477,0.0033283677605103067,0.01244531065865285,0.001789736964920502,-1.3632774700655659,0.35494797646761295,0.6214898793828835
2453499,-0.0005515427626819938,0.015651520266989793,0.0039280779257056565,-0.8210673793180764,0.2707270515903415,1.0869459672629633
2453521,-0.00211945642902107,0.013529641329866872,0.004740611394215304,0.05697544726371474,0.6187875711459524,1.7010009146473417
2453543,-0.0011540457704112832,0.007508482624440123,0.004131389398081412,0.7488961916846714,1.0226904107377306,1.8799491378045987
2453565,-0.000566091406331096,0.002788195483967434,0.0031080043660767476,0.8580548429500177,1.1578995941372994,1.4879807771149016
2453587,-0.00273628312784014,0.0038471218207137762,0.0023706874002061753,0.47545095224148826,1.1752020234461675,1.1368621367230463
2453609,-0.005909933306751996,0.010626672503513096,0.001230205894943112,0.14579417418005428,1.459270556078573,1.5347281275184137
2453631,-0.0053751473753181804,0.01850561759223449,-0.0015407003573301276,0.4494485216950828,2.0122255063457435,2.617509456877648
2453653,0.0010341402312622815,0.02197186861647146,-0.005867082321170672,1.4897165867621853,2.3288265251175955,3.5357768956364737
2453675,0.009170955487555876,0.01910353376570243,-0.01012261704394773,2.6362143119111994,1.9825183581695125,3.4754993924450015
2453697,0.011846523345857082,0.01295068348680927,-0.013347327354623122,2.7758218491850597,1.146597131172836,2.281351257992652
2453719,0.007006253777218545,0.008569816312328496,-0.01753057169848746,1.0697332799632608,0.3458796749568382,0.3617834433556727
2453741,0.00191110248285082,0.008925741088838129,-0.02660471223411398,-2.189243897752446,-0.23352963912715505,-1.4949413816109258
2453763,0.006643005429768934,0.013619754662173019,-0.042002953299761,-5.372021221464262,-1.0172562522342694,-1.9698883100556146
2453785,0.021626394181242035,0.020454217038214175,-0.05937698078088334,-6.5028955204921814,-2.633204982873977,0.4073789471995225
2453807,0.0330368851161454,0.02694249747879751,-0.07134957257279324,-4.912839400947467,-5.273871088041255,5.714343646529948
2453829,0.024181460432322235,0.0305157260070609,-0.07462473972669866,-1.947057411857924,-8.331911746359978,11.495898383913781
2453851,-0.006778623776300569,0.028760878736375266,-0.07372619731121283,0.28995095638034707,-10.615540453879062,14.254282656802927
2453873,-0.04188762790670974,0.020602664634197593,-0.07692371233231843,0.9349889031130735,-11.224027561270955,12.739177025395916
2453895,-0.05819709700822948,0.0071614991879500045,-0.08887733914370065,0.7870217459278632,-10.505953243976805,9.236045469943567
2453917,-0.04824471860793964,-0.009175860460716275,-0.10738807360402473,0.7063456647380899,-10.025563479369666,6.9728007467647934
2453939,-0.02627945324349368,-0.025856677777531027,-0.1259983413919241,0.12335043633167111,-11.256780948905321,6.638492949850059
2453961,-0.015414655963705974,-0.03792569968391039,-0.13871174080153492,-2.396046706898277,-14.176244213909772,6.221194150913591
2453983,-0.02925920357186196,-0.03428182041000659,-0.1431261098960588,-7.171268504397674,-17.120825647347996,4.135661334077763
2454005,-0.06332026564285198,-0.0018824314020849313,-0.1407772316137592,-12.286378267599282,-17.92749168487817,1.5661280186481252
2454027,-0.0987708898831417,0.05810073397244498,-0.1350195027243072,-14.61344246920086,-15.321396967647017,1.248808481171923
2454049,-0.1134297740744436,0.1176998437245003,-0.12776124272265796,-12.199246114826465,-9.822891016403036,4.426901001518854
2454071,-0.09607392540220346,0.1360044246737581,-0.11762399409504115,-6.095344451073321,-3.897044219068815,9.47425130183281
2454093,-0.056897291048947744,0.09628280594460213,-0.10159928448663387,-0.021272113554241412,-0.870367662604812,13.166725548597425
2454115,-0.022552020572749135,0.028285263276949475,-0.07855328573135967,2.255541294075847,-2.6758920536859954,12.894983235834152
2454137,-0.015953925524922506,-0.015812283697913317,-0.0502131933785139,-0.10100982230581808,-8.171338105368186,8.231112164874
2454159,-0.03942333657629366,-0.010868869521524965,-0.01880444546922409,-4.419943588315278,-13.996286501100869,1.365044219074135
2454181,-0.07684963134716458,0.02181546013721488,0.013908923894373081,-7.1180949752312275,-17.311132984747033,-4.030194566033541
2454203,-0.10875505433346999,0.045882022390444456,0.043648378625980144,-6.896815089918285,-17.544428407366198,-5.4873432629215015
2454225,-0.12432742815640668,0.050406727052560434,0.0625277343978252,-5.258412288331368,-15.747322345026866,-3.9404121415867626
2454247,-0.12499387885123055,0.05131727956191193,0.06551320124114812,-4.195465196958579,-13.097172582497093,-2.739529738760383
2454269,-0.12164473556757577,0.06096819789955673,0.05791134059941442,-4.069826685416535,-10.270457756950899,-4.042324934757644
2454291,-0.12476277429221251,0.07111351970249206,0.05202344556826287,-3.9562198528646593,-7.476758213868303,-6.609315406608523
2454313,-0.1322813209094943,0.0680446011723885,0.05481337767110164,-3.3956796163775786,-4.556245283844448,-7.517807674350765
2454335,-0.13067273132386142,0.053807887367388466,0.06199333613062645,-3.049313475993372,-1.4612470520072556,-5.543910941536787
2454357,-0.112581087187037,0.0448417350361179,0.0653691535346869,-3.607868509315139,1.0773318113382169,-2.3651413139461424
2454379,-0.0884215677822139,0.052388316497218625,0.0620920625119117,-4.634818640274872,1.8964423170350917,-0.8047025206820482
2454401,-0.07449088578750267,0.0699403160474896,0.05414524617051167,-4.924755795932293,0.7161812861335558,-2.343869747108727
2454423,-0.07480201372900146,0.0811481131778017,0.04247678495096611,-3.903569606611898,-1.4397691878730814,-5.964915340987784
2454445,-0.08252089319276945,0.0777302181729965,0.02658089301192307,-2.2974315262754037,-3.4676851563589235,-8.853901695652155
2454467,-0.09469779473933401,0.06809001566175593,0.009115630771260734,-1.293390110691059,-5.229751450381836,-8.475001235209199
2454489,-0.11452308754944938,0.06849195656528927,-0.003441967471760292,-1.2755824697469476,-6.911378854485419,-4.628415188954599
2454511,-0.1386685709739458,0.08591410217259578,-0.0060897398226027475,-1.569754006718271,-7.958214051934718,0.29835553616737936
2454533,-0.1524544713256941,0.10976638502631046,0.0009345494469587422,-1.2889749208730437,-7.546314330449361,3.2868655078472844
2454555,-0.1434550691392097,0.12158448634579168,0.014620524657309982,-0.2169263011780776,-6.0338045471268495,3.0937146554639625
2454577,-0.11679145330580502,0.11332643650552554,0.03336446555338525,1.1200672663965,-5.120999460131755,0.9480200557540839
2454599,-0.09291234461177446,0.09476422686704598,0.056582603150623786,2.057846598056244,-6.123288147122284,-0.8768601260470922
2454621,-0.09021249489624111,0.08252430744834093,0.08054971166534715,2.359971278644759,-8.343823881809238,-1.0880444859189577
2454643,-0.11031023965862038,0.08403117438644916,0.09677201778041859,2.2891830198765337,-9.48327920346296,-0.08971048659603688
2454665,-0.13866870830013694,0.09282057318481678,0.09644511629989984,2.303660654954338,-7.672918348050523,1.0491832750367658
2454687,-0.15801572952623297,0.09670289625947655,0.07751172711547177,2.685610603434121,-3.1260644648143603,1.9293185670852528
2454709,-0.16183316850700505,0.0889430536530396,0.04747275191814044,3.288855715106006,1.9878888272001383,2.8540951437932853
2454731,-0.15669083421377317,0.07367068831505408,0.018751850055843195,3.5891853580767217,5.234349513346214,3.83826406534635
2454753,-0.1529423476897177,0.06204670311474454,0.0004415055705123143,3.1333182020451114,5.802121124011457,4.248171492501725
2454775,-0.15391840142851734,0.0619289754800829,-0.006445884564687813,2.0233913810876696,5.032008435679492,3.63301933380046
2454797,-0.15425779999049224,0.07027435753419094,-0.006977041583306137,0.8472085870204278,5.033406265028165,2.4637425587448645
2454819,-0.1476774265992925,0.07643864771084666,-0.006895426343427643,0.05708752851980502,6.634064736000022,1.698923577089454
2454841,-0.13441619747946437,0.07350330311609021,-0.009243508092198526,-0.47827330772620663,8.725468444780327,1.827294546862927
2454863,-0.12020337033937498,0.06581464493684386,-0.014668883321761859,-1.2090526593820847,9.574850620313079,2.575821145666752
2454885,-0.1095543970164045,0.0645877908981811,-0.022851484686121318,-2.2503389247388252,8.438664641713894,3.3236016328336717
2454907,-0.10256992009379844,0.07569023819617426,-0.03255379449196671,-3.1099599763519254,5.740703036299006,3.480366079720187
2454929,-0.09838936948323494,0.09249373180643196,-0.04092181489071908,-3.13083917775585,2.183346816455437,2.634667546276328
2454951,-0.09894836040325825,0.10242786247428769,-0.044320762907926324,-2.1856435770215366,-1.6779280279941828,0.8147228516770129
2454973,-0.10697506927949876,0.10058542797186527,-0.04105878642380041,-0.8444956326507881,-5.1114258903967595,-1.2401384147521992
2454995,-0.12098050889523793,0.09420242625898763,-0.0332561644349896,0.21146968833566748,-7.196808900690114,-2.383986440140866
2455017,-0.13458864741454168,0.09222831907174349,-0.025178215264806614,0.8628642560915899,-7.5502791841695975,-1.988925430384812
2455039,-0.14220724364407147,0.09341552018677053,-0.019366009440892843,1.4960673011957895,-6.849507668637724,-0.5864585907634424
2455061,-0.14484836016437497,0.08869976538784306,-0.014881921840210824,2.30880214688125,-6.279288613218656,0.5926757159551834
2455083,-0.14883522997061138,0.07466461794458941,-0.009495824421955812,2.903080817566013,-6.393138090647764,0.7618638871925288
2455105,-0.1582182825796972,0.0597858388453064,-0.00278628355995344,2.7197934984440915,-6.681042786088881,0.17826855929401256
2455127,-0.16971710464827605,0.054736705295178274,0.0035582465835248015,1.7620894659628967,-6.287701279774723,-0.31073885906908477
2455149,-0.1762621884761874,0.05956101900149518,0.007951577991010983,0.6780452407888539,-4.957321449413261,-0.08776946626613741
2455171,-0.17466305978865065,0.06476854432461114,0.010362243653487455,0.09208090854627349,-3.156584593807944,0.855442183990453
2455193,-0.1683594562728951,0.06479067507306331,0.011387153664069973,-0.015986437852419565,-1.4455658988049003,2.058393809127013
2455215,-0.16310384045136458,0.0660052745070639,0.010780828615190504,-0.21256417286269438,0.04147413455542265,2.94125570465489
2455237,-0.16171699271655376,0.07880237494044459,0.007778277523282122,-0.9890464104952812,1.5062263984011646,3.169071068791927
2455259,-0.1631520424192305,0.10363517157822665,0.0027491573852986917,-2.2962864546861153,3.084088967290688,2.8833004202380237
