timestamp,ax,ay,az,gx,gy,gz
2768033,-0.013342920797843627,-0.012386260966930556,0.00628278699365442,-0.38671258914935597,-0.5761488628633097,0.8874058621415105
2768055,-0.007475392326009744,-0.004911335083758514,0.0032456629139412576,-1.40048094007693,-0.05602290792989584,0.7638969350750823
2768077,-0.0030170191257016723,0.004459713833726114,-2.8822477323064445e-05,-1.8510227065511327,0.32433316539833695,0.7021195456845089
2768099,-0.0004462308403426556,0.012401149328497214,-0.0029044106362354433,-1.472166265041541,0.4837831040482662,0.6062140620526902
2768121,0.0008989293213724208,0.013309507720841105,-0.004293249933510837,-0.47351605114977713,0.4265042054350305,0.33031200895267104
2768143,0.002145455827822484,0.006579487562551651,-0.003845839241884779,0.5836925935216997,0.22950879907871533,-0.10138067107732626
2768165,0.0038373817421011756,-0.0018489958654073933,-0.002281145360751495,1.2065721550393556,-0.004096143639825979,-0.49111794318199886
2768187,0.005408408834272056,-0.005682600011347946,-0.00046813840332645074,1.3234682565471358,-0.20573581825276832,-0.6898984950592176
2768209,0.005790660105648879,-0.00413372786889772,0.0012790089265535738,1.2265957939670773,-0.36363167801564883,-0.7487707298011164
2768231,0.004691529090787931,-0.0008508034929908564,0.0027039199577276424,1.2067376032161965,-0.48016644667621994,-0.8317988716449642
2768253,0.0031228168619771507,0.0011291345094378619,0.0030115243192872926,1.3002312029234713,-0.534774915357826,-1.0346112233813338
2768275,0.0023942120478296592,0.0013919530451673011,0.0015222083546010832,1.3756846887165268,-0.5262184480840307,-1.3161991506396908
2768297,0.002656833668499347,-0.0001695243770166717,-0.001136850688418692,1.3575754373296176,-0.521927859116219,-1.5753553548791353
2768319,0.002796380305681091,-0.005036661281422161,-0.0030751416319457782,1.267223463921076,-0.5924213065871818,-1.7561816114177955
2768341,0.0017895309450573899,-0.013801609592679273,-0.002589139970157655,1.0741690987836858,-0.6936958584828407,-1.8668558897640393
2768363,-0.0002346012020514201,-0.022812829482993166,0.0005841513965310683,0.6376606998336748,-0.6866625085356923,-1.902684288127817
2768385,-0.0023741325075208063,-0.02469448234328946,0.005290703689576369,-0.10605971957139376,-0.4961804188295819,-1.7880363555653531
2768407,-0.003906429304200239,-0.013896578067459503,0.009754818658570993,-0.9040831843939924,-0.18924213660105554,-1.4546961094968915
2768429,-0.0046235991516576785,0.006712674366065596,0.012417350127261051,-1.222920925732352,0.1357872668873603,-1.0027516107233134
2768451,-0.004710063360706785,0.02482330866599102,0.012679513720680732,-0.6550416424155329,0.4783965538736899,-0.7294709636092607
2768473,-0.004620123078250386,0.02731503753349889,0.011018265701376314,0.6090266169474127,0.8987110314321564,-0.920334247619146
2768495,-0.0045007216008734335,0.01340598362154742,0.0077849403718401825,1.7591601298741086,1.381557574668161,-1.5984013756562658
2768517,-0.003164668214182115,-0.0015923041715445365,0.0019466171800364095,2.0225903679006016,1.797131110282365,-2.491422844907768
2768539,0.0016079168158981364,-6.781773020951565e-05,-0.00767850011883878,1.5093969591718088,1.9929842400813849,-3.176142990533837
2768561,0.01021530099172962,0.018075542216371625,-0.0190819868368269,1.3105226737484108,1.887485057688813,-3.2071897690760394
2768583,0.018564480828421447,0.03154217454983138,-0.026011144617777936,2.4785059752332734,1.5020722953611387,-2.300081464925599
2768605,0.020297287886325635,0.016666417877593306,-0.022233666811097643,4.7568151523883335,0.9795866561374003,-0.6904007796703925
2768627,0.013347549712103468,-0.02843812506091074,-0.007843618336594957,6.443033969652036,0.5677043005028543,0.7212357139986633
2768649,0.0031641389430112268,-0.0787818414623226,0.00926135182620113,5.758196896284273,0.4780447093430381,0.9613430681009499
2768671,-0.0025749596556680658,-0.10218364762263733,0.019305610641385737,2.4917900791836947,0.6877876079981824,-0.08325030997034127
2768693,-0.002045026187465018,-0.08544682555061416,0.018639661812101267,-1.7095612045567474,0.9257171031816621,-1.4975278449222844
2768715,-0.000304304047937542,-0.04293032433114332,0.012130077911260334,-4.686331318825141,0.9384696662579665,-2.219701609898652
2768737,-0.0024558321687513053,-0.0015841030407753587,0.008303180634149514,-5.372914082214714,0.7822762480307622,-1.9599058625498949
2768759,-0.0077229032879916155,0.020300028389576206,0.012926318886200251,-4.201854685735817,0.8075833688694973,-1.216074315226241
2768781,-0.010772930265779633,0.020363808844523157,0.026932298096209728,-2.2943158460197313,1.3472166747220833,-0.6116495125542306
2768803,-0.007181271044796177,0.0042186675897528236,0.04860846053245712,-0.6016665805701077,2.4553876733370052,-0.36939094994407234
2768825,0.003409538239184109,-0.022696828219032707,0.07588260431853852,0.23654353037841958,3.967410471112026,-0.27195408525009057
2768847,0.01801585240600791,-0.05362223202017389,0.10643668736398096,-0.2781337123138462,5.798928262111697,0.12296164902457128
2768869,0.03225093576904678,-0.07577125339510013,0.13705348318109858,-2.280739474338352,8.175364046150484,1.2513853394939785
2768891,0.04206545528917028,-0.07356965301470916,0.16382191844159816,-5.046389611622301,11.52826664290597,3.249716336156451
2768913,0.04601578220454785,-0.04027529872435692,0.18254278536641083,-7.011097143632113,16.04501930369501,5.5904917001100385
2768935,0.046982519923701324,0.012409518223125561,0.1885165621991145,-6.649250437792384,21.212950415012703,7.034959056421924
2768957,0.050236890335379696,0.056992362726642695,0.17728558684581397,-3.5627262770411736,25.8891426028048,6.367054795032461
2768979,0.05834293319891675,0.06652433315411427,0.1481048997526469,1.1499623712542084,29.048522934952942,3.6451793181597028
2769001,0.06863253326878323,0.0344232615060265,0.10800327022975773,5.528848477078846,30.576332426990852,0.7824273660455754
2769023,0.07693854482309447,-0.018882560423794385,0.07108347379335786,7.874038170006233,31.24106216641763,0.3809095075387247
2769045,0.08341344704549664,-0.06057621181218803,0.050543877026540604,7.537197213318775,31.809467732772124,3.2932342113167015
2769067,0.09333745417066791,-0.06943099702964795,0.04849720303758655,4.906167634890412,32.20695855125232,7.066183550508455
2769089,0.11174220407706914,-0.047595342196915545,0.05317407331872161,0.8511197136942007,31.548119866784027,7.241083768479363
2769111,0.13768072865799338,-0.012040914376902492,0.0478414374643926,-3.649368496524188,28.978595089712098,1.0040427453803016
2769133,0.16399644688361342,0.022193145497888603,0.024208683673086383,-7.462465849740423,24.58591409951609,-9.935713425434619
2769155,0.182438853675143,0.05084508935334509,-0.012189360695038015,-9.3812876604483,19.617863151925754,-20.202699810098657
2769177,0.1887581318573705,0.07672168146174468,-0.04858921306758931,-8.662547587632945,15.775054861806085,-24.929435171091267
2769199,0.18306380277389078,0.09883807038295843,-0.07457888612022903,-5.429077723762323,14.1406530376907,-23.401583260448344
2769221,0.1668264079588185,0.10381699276507299,-0.08512607527914388,-0.42385856625251406,14.712999559602634,-18.762310213895876
2769243,0.14271763362568063,0.07069062884231476,-0.07926947212316657,5.30299317859185,16.848379784610625,-14.523975815951559
2769265,0.11909723996984803,-0.008086507984281587,-0.061481601561074795,10.12691560054382,19.828384685928476,-11.76924301131676
2769287,0.11081113445351713,-0.10741302829208241,-0.04310840900025127,11.728071073212623,22.780072827651225,-9.483197002360917
2769309,0.12844171509901847,-0.17757992814872897,-0.03615479829463973,8.292454879129217,24.386859965153548,-6.717294204531003
2769331,0.16477399494631945,-0.17906165160133697,-0.04290798918877866,0.46254829245682955,23.411516167985027,-3.8726042256246953
2769353,0.1975092028357821,-0.11204828849837195,-0.05392809138406742,-8.177438363153914,19.913208046006844,-2.1628926138281273
2769375,0.2100178665480819,-0.013646417324226872,-0.057390546962235105,-13.199718519104563,15.642081495426645,-2.4089137174884323
2769397,0.2070841130404141,0.07039265977001744,-0.049118839873366696,-12.389100116082274,12.658117376965777,-4.551978021897447
2769419,0.20745273732177408,0.11345686876225883,-0.03418773301029217,-7.088566864667989,11.423334949178994,-8.034348203236041
2769441,0.2238737205478634,0.11923774019533405,-0.0219669112651906,-0.7710132795547588,10.522640161606185,-12.100470021411331
2769463,0.2526502637886663,0.11373671565117324,-0.020171792923661502,3.982445315525029,8.336074106992161,-15.452477248025762
2769485,0.27828992078928455,0.12126659175479448,-0.029395615663387033,7.676930649332234,4.799375947623362,-16.163452061701996
2769507,0.28528579347747957,0.13973155444845572,-0.03997678978014828,13.105866664875833,1.5300796488491402,-13.030337956517402
2769529,0.27050463527057417,0.14157448238044584,-0.037421222198661286,21.77029883803472,0.33828128156529386,-7.4503463665998915
2769551,0.2483216903896722,0.1055454624509204,-0.01665838231278189,31.077951900698864,1.3281443910743467,-3.1306963154345873
2769573,0.23853277305588777,0.04369311865683672,0.008878883434761738,35.97312592161102,2.0748891662675604,-2.9345522402460933
2769595,0.2447545852617059,-0.010900667343756578,0.01695433186714528,33.7632793892903,-0.9435976759860442,-6.069639090291987
2769617,0.25053611105477375,-0.03874135144410013,-0.0019378087689221417,26.77269053738098,-9.116430832003381,-8.880730528211442
2769639,0.2414339573923518,-0.04729580149216031,-0.03268668827357123,20.075591240349027,-19.502236318256813,-8.10512395080573
2769661,0.22367145928038307,-0.0540333199145729,-0.04587675975088517,17.34735304649611,-26.333820907374342,-2.990766495879473
2769683,0.21456183188011613,-0.06585571560849546,-0.023424836887821064,18.910167322779035,-25.23888806586355,4.8084643912319995
2769705,0.2206799872315494,-0.0749425305904911,0.021435551646052185,22.497247987213754,-16.41674097996578,12.154136660627874
2769727,0.23267068362591725,-0.07061062613092978,0.05149227806776158,25.099530771092628,-4.404201138585103,15.629278373163327
2769749,0.23822390458311998,-0.055154735840908714,0.039244649217786955,24.705687472645835,4.913812308166561,13.293070794116366
2769771,0.23365780615112006,-0.04621372998122505,-0.005757272665529254,21.16368504882336,7.87978011650811,5.967018214683515
2769793,0.2229451024958372,-0.06016892544164319,-0.04617201334250081,15.709354283267116,4.976424122462125,-3.274097114453643
2769815,0.210587849306143,-0.0948707607992535,-0.05160020823746922,9.774619978913249,-0.14772260091158695,-10.996842667281589
2769837,0.19847250860539825,-0.13136345183010475,-0.021405433186524693,4.2467798127684855,-3.646873077981456,-15.224453837580613
2769859,0.18755029976997628,-0.15047333817492972,0.02221574304789399,-0.43019219918253887,-3.9970366918188645,-16.200584004341877
2769881,0.17906218189992312,-0.14552163598186765,0.05632205743586786,-3.844446157149907,-2.266167493011381,-15.737585346658333
2769903,0.17368954084945057,-0.12167504900715331,0.0720536405213675,-5.459233198128944,-0.4334454698086204,-15.478762142836064
2769925,0.17127133244418152,-0.08832472022216817,0.07399072319911046,-4.78462041501912,0.43933715471808477,-15.469686686602786
2769947,0.1717917992655768,-0.054959105807566536,0.07043886060243619,-1.6821861553913064,0.6588132648486444,-14.442208142376542
2769969,0.17547513818372495,-0.032012605833901246,0.06490812827085231,3.3750651189469765,1.0071428358302894,-11.484417726193136
2769991,0.18164382985921868,-0.02986364544318915,0.05476594574487369,9.334824258561888,1.768157832776932,-7.186534609555951
2770013,0.18864805488946285,-0.052697557691154494,0.03645601100325128,15.128136611470882,2.6638549283779978,-2.94677491988441
2770035,0.19541171381839104,-0.09294398154477197,0.011451613649002733,20.428560629182,3.438218059095194,0.646175056568213
