timestamp,ax,ay,az,gx,gy,gz
2669715,0.004875910812285592,0.00306425849300339,-0.010245455115511934,0.9331295759900908,0.29168193491794653,2.6809004727909387
2669737,0.0026894496124926256,-0.006388470352414202,-0.005052871674599115,0.5556086683250622,0.3374271024378528,1.3583249302869422
2669759,0.0015106403299806176,-0.009320615863604515,-0.0009988147616172675,0.10289441878220809,0.1044413374542537,0.23165475676397682
2669781,0.0009548220192710901,-0.004776879103299565,0.001822087828022438,-0.31565788465695427,-0.36405628900253634,-0.4959208729414256
2669803,-0.00023388100854460455,0.002716768805666081,0.003751782924433749,-0.507291223137294,-0.6986046280653582,-0.7294764813710994
2669825,-0.002294418810747765,0.007870588533648087,0.004438806333866205,-0.43232329324757846,-0.5517364144935759,-0.6014850699596298
2669847,-0.0037437774157368644,0.00848156545988655,0.0033243224596654092,-0.2463554652375146,0.002624723202322923,-0.41896013281682587
2669869,-0.003063813321799831,0.005484577177015301,0.0012808980581867579,-0.12200083765232829,0.4466754076243029,-0.46092220534764317
2669891,-0.0007392183729810483,0.000997623607124429,0.0006912944717571764,-0.10626027195931756,0.30279556359096776,-0.787160282867439
2669913,0.0010130002197625738,-0.003138029203877041,0.0031687007618994814,-0.15895107802962494,-0.32605421522858546,-1.1810939810276448
2669935,0.000554508459763351,-0.005873380526561154,0.007594677012286494,-0.2629185184647959,-0.8027779064729131,-1.2899225575266493
2669957,-0.0015378569162969955,-0.006926197585219199,0.011002876122571274,-0.4519138385961702,-0.6130891945116773,-0.9304065541571391
2669979,-0.0032486199602234003,-0.006319910995193763,0.011255000539571184,-0.7463636562550241,0.09717020109344865,-0.3307331697301342
2670001,-0.003213502648225958,-0.003938936610224193,0.008551584888903587,-1.089860681338474,0.7135004995083402,-0.010411441178950584
2670023,-0.001753552001664711,1.9846569249497298e-05,0.00477074557436492,-1.352344675105334,0.8170229819480149,-0.3063942404575507
2670045,-5.454767867996344e-05,0.003933418106779291,0.0020108787223399997,-1.4039925763406944,0.5528241664611303,-0.9931482106953753
2670067,0.001110759263864366,0.004952826098036861,0.001606699847803062,-1.224208979876292,0.34858111401498126,-1.4518787769313324
2670089,0.0016433538319195196,0.0016653822260840907,0.003744322704577828,-0.9583825977646991,0.38971283418632324,-1.2762483692091058
2670111,0.0015752243044493467,-0.003204512678899955,0.007548640056923417,-0.8232003019370995,0.46651412295811634,-0.6792651415787772
2670133,0.0008897271810539296,-0.003830311043713142,0.011610390188504655,-0.8946066691361536,0.3186828869874117,-0.25668731193756905
2670155,-1.0017655877215165e-05,0.00395099999433212,0.014758045431029024,-0.9808699918011042,0.04103361762802991,-0.37452681514474107
2670177,-0.00022535512023517427,0.01840524011251414,0.016888751482596425,-0.735526670320903,0.07362796204869758,-0.838519309948816
2670199,0.000650330233246839,0.031976573188318855,0.01954846413317313,0.07201039143737828,0.7564536781831979,-1.14799495758575
2670221,0.0016767756172254222,0.03604346005633922,0.025450080175769933,1.3396288926047404,1.8874917182232174,-1.0247465174327886
2670243,0.001278773100225831,0.027951702501275086,0.036662037849484616,2.622043156246279,2.7611007052876384,-0.7302082866139917
2670265,-0.0013405932258668746,0.01514651080820049,0.053107892092905264,3.3929972159746455,2.7835636016395,-0.9641994326786851
2670287,-0.005865021857810981,0.010171916159702261,0.07324522756125776,3.4902963176669175,2.2507951130943584,-2.4145897174528703
2670309,-0.011079795878361418,0.017434095629199595,0.09577098197344569,3.355577330203726,2.544287576829189,-5.129011349648706
2670331,-0.014023696164072692,0.024971189432514515,0.11925825401695847,3.652390945794307,5.206700316178115,-8.028877280922764
2670353,-0.009454920720196337,0.014611696800732656,0.13983744017800928,4.473728876853493,10.314968602453817,-9.080499994496012
2670375,0.006886544598923712,-0.016176717795541546,0.151185758631275,5.034097346657516,15.676021961030685,-6.413469501881951
2670397,0.032156852716732645,-0.04597522361089412,0.14907497760500102,4.41179501655797,18.18534513331551,0.15870146320391995
2670419,0.05530321813596039,-0.04859465788776139,0.1361259402345599,2.662555243808208,16.64744942560747,8.442032040287845
2670441,0.06668137653054225,-0.020568935058708274,0.1202659067820188,0.9826915175715089,13.312001053392057,14.792555807875447
2670463,0.06991533001850095,0.015473482239563602,0.10697668394241765,0.6148978850917441,12.051195042148851,16.204117527867286
2670485,0.07866637941263101,0.035834855176812064,0.09397324240579642,1.7928069500113668,14.591497208692246,12.208110013127065
2670507,0.09678489239568422,0.037499074706100574,0.07590475728129947,4.0257322673299685,18.910132513167795,5.37711028672648
2670529,0.10716581310996204,0.030500333303929705,0.054178351950826785,7.14257769772045,21.98650848428865,-0.05626009023248796
2670551,0.09109656663186001,0.016209516835108365,0.03832413297599697,11.32448522350358,23.753841180516606,-0.9662785922329342
2670573,0.058368028938996175,-0.014756965400769586,0.03505140645430711,15.849122266864494,26.936594047537255,2.2280695375308723
2670595,0.04509397825250807,-0.062149986850748025,0.038354164226422044,18.46855657766472,32.53135054431436,5.65014428748759
2670617,0.07459654781922594,-0.10385475720831844,0.03404393008693707,16.904915002708307,37.04910937784281,5.122027198645115
2670639,0.12870552560416015,-0.11190645891127426,0.014054351974761193,11.255166414693882,35.934686947314454,-0.09328514170859604
2670661,0.1662137647892079,-0.08083258956619159,-0.01542995466160214,4.666027855397341,29.247600169502995,-6.5649322131518515
2670683,0.1656426734383031,-0.03714602375179526,-0.03954347198355752,1.1840740075303382,22.24888175790585,-9.846918570599216
2670705,0.14255140452234266,-0.017924285331018773,-0.047187587324195604,2.4743226468123822,19.952526448140954,-8.398123925665509
2670727,0.126866545769952,-0.03782369557839346,-0.03912727437171008,6.395988876387217,22.21626893474206,-4.464786562780915
2670749,0.1314587903837817,-0.07658962040402748,-0.026164872634965475,8.895220285564713,24.865622666608203,-1.522232091787612
2670771,0.14679886442859238,-0.09916886626636172,-0.02022193637987664,7.550538820098508,24.81177729401339,-1.3269013746032117
2670793,0.1617473026273467,-0.08805889416532058,-0.02601457371231818,3.493387300091091,22.856681089621862,-3.2921369972339685
2670815,0.1796634273814373,-0.05787502775867918,-0.03873520663698531,0.09260235467350192,21.38486400960067,-5.8515922824827715
2670837,0.20748666661214438,-0.041992804007332483,-0.04754559515906947,-0.14976560149692947,20.4744455726188,-7.822853624515297
2670859,0.23491209373960767,-0.06448901548635799,-0.04268462179961866,2.2451710809844205,17.621315422387102,-8.842730312272062
2670881,0.238664070169989,-0.11882023968565958,-0.023436134565174235,4.144776504756515,11.495628920803606,-9.190490425070452
2670903,0.21163330233315605,-0.16997500066872115,-0.0007125764671114412,2.404639705174654,4.715098740674986,-9.280834496489016
2670925,0.17651030021360978,-0.1807832420132287,0.010755070893352689,-3.3814006747891194,1.602441666019124,-9.112022978319935
2670947,0.16277636516621352,-0.14078211073088392,0.004491527566456954,-10.32241330200841,3.4842764525791114,-8.278163727325051
2670969,0.17762283907231322,-0.07164685557597796,-0.013897616918124847,-14.352150320567354,7.3862288994211625,-6.548383486267867
2670991,0.20578703858526223,-0.00812148726201864,-0.03335290142410723,-13.064287441564646,9.314498518525715,-4.2124676615634495
2671013,0.22893084065267266,0.023547647934649744,-0.04473851693093888,-7.083435010208084,7.664698200605548,-1.9492463401769538
2671035,0.23631055937721893,0.015459136036647095,-0.043273111624700974,0.4277792053379562,3.458270194711858,-0.7133177853916929
2671057,0.22571792294095372,-0.02005915167504406,-0.02969100881981843,5.580433395288808,-1.2131167789588768,-1.4839554581040888
2671079,0.20798456746594068,-0.05435959365036671,-0.011478023504187569,6.47687779034891,-4.383710143428932,-4.212346411277595
2671101,0.20605138096421582,-0.05807958403852624,0.0005523747356315403,5.465139362940711,-5.206258032493229,-6.637955446936653
2671123,0.23329746058984835,-0.024720487373987677,6.422818526932651e-05,8.245301883307379,-4.855058529875875,-4.963829255504492
2671145,0.27064545225988956,0.018002303675268852,-0.01109054345410545,18.974611325709407,-5.741552488344289,3.071203091819641
2671167,0.2795546433700786,0.02603760194400611,-0.02754798696706748,35.25926138178815,-8.781358074748878,15.392089675022829
2671189,0.24423875898874556,-0.023884131722696468,-0.046348068028907154,48.653465992125206,-11.85019298944634,26.392840591535
2671211,0.19028653639392773,-0.11223782084092648,-0.06591025473737443,51.13875710126468,-11.986700157158726,30.967306064233014
2671233,0.15521584857487328,-0.19276246337775996,-0.08127268390078185,41.35450729421771,-8.89064261700702,27.71475205327843
2671255,0.15102250023083724,-0.22959273412913336,-0.0850700223610458,24.710106507750414,-5.204618406969108,18.763603314817008
2671277,0.162665751155372,-0.2192069371775533,-0.07471009828963217,8.40103556966028,-3.436045991706574,7.8158832013805934
2671299,0.17266753254825298,-0.1832505831830306,-0.05598649829533296,-3.2168224362438487,-3.644155826025983,-1.362278205974261
2671321,0.17577441489929904,-0.14724476761825164,-0.03772965578506789,-9.682818324247942,-4.268536218449517,-6.162063029389465
2671343,0.173827213619387,-0.12483877306090065,-0.02380437572855961,-12.823078090432087,-4.2060897940085,-6.506036992294028
2671365,0.16782071699649811,-0.11517821714354627,-0.011356651117237715,-14.644526772470769,-3.499503053475219,-5.037191036513406
2671387,0.15880953878472123,-0.10990500520812262,0.0038279161909372406,-15.996253019742511,-2.5552312347698454,-5.040294246562986
2671409,0.15165253261970527,-0.10218739054050147,0.021602287934889604,-16.394844180373283,-1.4669794752628462,-7.596574275102635
2671431,0.15244866835908572,-0.09171015208830019,0.03745111011254205,-14.87226911072129,-0.20412314645565413,-10.725712027873369
2671453,0.16155137128520058,-0.0838169539194944,0.04734414674380826,-11.12177292769346,0.9734781293430451,-11.356748224490255
2671475,0.1717023507895512,-0.08443561307097988,0.051266034309158146,-6.005280271683978,1.664170913637949,-8.109365228889056
2671497,0.17513869753783254,-0.09410109913571936,0.05128985572559994,-1.0723869058248576,1.8973815928018167,-2.3029433315315035
2671519,0.1720848780532171,-0.1058100429693438,0.04724429694355857,2.403887056112471,2.283189858133361,3.284869921486834
2671541,0.17051827333790653,-0.11017442393524053,0.036484241307215365,4.068621459272166,3.3367947411594554,6.328590172558027
2671563,0.17725230388832164,-0.1043509954056716,0.018861857966631642,4.3830285608467685,4.711825020866226,6.042156026917283
2671585,0.19065681829507777,-0.09544799119805968,0.0004586405783960608,3.9983398675944835,5.37046974754528,3.238562174751024
2671607,0.20276737792212227,-0.0939656663210939,-0.009546082824432287,3.219822866382805,4.602321943645071,-0.2706013631252603
2671629,0.20717138071379163,-0.10358848882825367,-0.006228075886528002,2.0106517802908033,2.7288789752729268,-2.7315308786611445
2671651,0.20357201545520734,-0.11725425246866814,0.0070743258358303765,0.4015400923709437,0.7481004658286231,-3.538270583122342
2671673,0.19560907724753399,-0.12279931205406185,0.02187033649137556,-1.2535349640004985,-0.5589412784744185,-3.4845617071430435
2671695,0.18646065717814547,-0.11287765452810254,0.03148004493801387,-2.528623941151309,-1.0836995610762297,-3.786272935163449
2671717,0.177251669978443,-0.09098392735821315,0.0357155666508867,-3.3891930494516687,-1.1711935533508917,-4.789397051368754
