timestamp,ax,ay,az,gx,gy,gz
2725903,-0.008440331851794632,0.005016115083143895,0.010355327740426964,0.10491715125885626,0.3827161295455157,0.1273096667658433
2725925,-0.010344693367852613,0.008231942923304517,0.009731515016055053,0.07768332405203485,0.28415370325812195,-0.2640758040052415
2725947,-0.011678716663370418,0.007034178619267091,0.008102972595992458,0.14162035342137883,0.1872683033551982,-0.5492859341582816
2725969,-0.011149165413868857,0.001811917242925058,0.004768015467764769,0.20190683609568744,0.17875755026458207,-0.6630450283574976
2725991,-0.007271268476318595,-0.0023329523498740387,-0.0003245464832045994,0.09335542164003342,0.33090159771323774,-0.5739494896882446
2726013,6.607306967023815e-05,-0.0012770466546602175,-0.0061322267780920614,-0.14739929889467443,0.5280060850487537,-0.2793928437151781
2726035,0.008575912679681568,0.0026740207349365973,-0.010447838911563883,-0.2691235005069849,0.47701203516016305,0.14767380289872042
2726057,0.014432224018790582,0.002607906694044295,-0.010891651737500384,-0.13660559208840264,-0.043009640201537164,0.5364270498956364
2726079,0.014695299998919166,-0.0050770131289289465,-0.006552203528098863,0.019159622751388904,-0.9208375923173856,0.7234685192251696
2726101,0.009465501350300354,-0.015977534383215294,0.0011915579007707152,-0.19955673254537554,-1.714157453921007,0.7161109187178278
2726123,0.0019620800732439636,-0.02192720748406751,0.00946079349214957,-0.9257212925232259,-1.9509290138577693,0.7074134051833559
2726145,-0.0036312706077049456,-0.01886808094186948,0.015553792027470068,-1.8843943754739974,-1.4789612576177462,0.8783185094072296
2726167,-0.004865081668528294,-0.009477443956765497,0.018166529560369557,-2.668215761881567,-0.5510343535544886,1.1903022435689283
2726189,-0.0021893168073094937,0.0007026997257312473,0.017436882483706242,-3.0592419432397717,0.4113826973229616,1.4084811117919596
2726211,0.0020984027053771535,0.007660721472594199,0.014262915297636718,-3.0715004414526264,1.1260445342877192,1.3467038117870012
2726233,0.005985593975826698,0.009813648106647114,0.009936378763911933,-2.804968384852673,1.5560210857372776,1.0896948782537401
2726255,0.009215911705179936,0.007112681603360868,0.006312420711247112,-2.3656417097647777,1.7921694886186676,0.964084052556905
2726277,0.01318344793150554,0.0008888520561168272,0.005562657111002644,-1.8957566035574722,1.8932842482866055,1.2530858541277603
2726299,0.01948812009639762,-0.0061302552826353615,0.009066285606518279,-1.5870962579524468,1.8235076094003415,1.8730861483373735
2726321,0.02812941303291662,-0.011103805349799779,0.016729638510864276,-1.6293010915374437,1.4975593710847743,2.301863306170726
2726343,0.03679966602406523,-0.012959196185104757,0.028116133866872905,-2.1465251328189088,0.9121699552194342,1.9199340712206892
2726365,0.04247104091895271,-0.012886914486854886,0.04441589998616057,-3.134782105427629,0.31213817156506485,0.6032949126908448
2726387,0.04435444437565365,-0.012843116498905823,0.06842631738201983,-4.403438420635056,0.2077648252931821,-0.9791713591510015
2726409,0.04482993550701114,-0.013089802510762857,0.10111894032630141,-5.653518866781806,1.0606627107310524,-1.9104488802366963
2726431,0.04625440822655748,-0.009967379649202926,0.13715946969999118,-6.759055434704856,2.8321678031156137,-2.1289071623009623
2726453,0.04688532147401827,0.0042120504608019515,0.16437116020411618,-7.874642379640247,4.969816120051272,-2.7696455147278742
2726475,0.041724886811978876,0.03598236434553216,0.17022783087184062,-8.90325602233526,7.072999339925978,-4.864667336953763
2726497,0.02888790515078609,0.08058710704830796,0.15190588003675673,-8.787559939769451,9.55538697245372,-7.681983103654651
2726519,0.014724121635317647,0.11599428787324582,0.12075955702689031,-5.977788167548244,13.318048396854806,-9.145733289902042
2726541,0.011099501442869381,0.11288358896152256,0.09487672417622961,-0.48202877564981034,18.47588891839725,-8.59615440930244
2726563,0.026354845560249827,0.0596483219337202,0.08441955550412605,4.480410656480639,23.506636923660913,-8.705279102686887
2726585,0.05799038180695293,-0.018278173199271202,0.08309737130564966,3.9837467273994283,26.09520028111679,-13.376220174463137
2726607,0.09340360364892068,-0.06917378732020536,0.07496795683767152,-4.127998013716044,25.183199827894832,-23.03425835451204
2726629,0.11814325723840846,-0.054343464807778456,0.05085197383496677,-16.076257240141054,22.163365937345553,-32.681802709027856
2726651,0.125300729798549,0.0190506078052246,0.017944365869880862,-24.303103119267806,19.810463243621154,-35.699720375295755
2726673,0.11847357224724847,0.10478360352880524,-0.007178379559286836,-23.40465097064408,19.966187047614792,-29.75757447069654
2726695,0.10624822060562973,0.15569124357010639,-0.014262690762784719,-14.05680946328723,22.36342419420794,-18.707642313004335
2726717,0.09490459665488236,0.15438929142101676,-0.007480178875929076,-1.6002304926753501,25.566979432294293,-8.99406470417299
2726739,0.08746609909159511,0.11366210884001436,0.0006932203558978442,8.433592032353296,28.613940454855488,-4.580912962510162
2726761,0.08783829810435748,0.058360343936192584,0.0014308338978416334,13.55180228518842,31.47923304472366,-4.757548228623175
2726783,0.10129795433065135,0.01085321141066564,-0.004662262429788038,14.468344441874715,34.222913740833874,-5.815491666297666
2726805,0.1282887519736156,-0.014640519956643496,-0.010874083215150241,13.391501904507587,36.23901944346118,-4.617517874675205
2726827,0.15955450069207544,-0.01662412063736595,-0.01092967634713748,12.31868812224553,36.670068478443795,-1.1276563258365981
2726849,0.18163666032777645,-0.009578858061040951,-0.0034941838555279745,12.130661736490037,35.46297277659812,1.9847555114164601
2726871,0.18996603526803021,-0.015032612575987196,0.006323324126099863,12.35411130930173,33.649551520300314,2.094666054883602
2726893,0.1949567644394764,-0.041145574564101915,0.009636487431113686,11.60883982497972,32.28266998297644,-0.8487782017984775
2726915,0.21087473599314208,-0.07215641750316439,0.0014761707786514649,8.820122532786662,31.212477685682806,-4.226752066796697
2726937,0.2379461507193127,-0.08287914815835183,-0.012786104187842194,4.3756844158912225,29.410109102381437,-5.017547309776996
2726959,0.2604409915412288,-0.06291709889607516,-0.022010875289925198,0.04317031570147567,26.64954135716195,-2.349795013620848
2726981,0.2658275221639349,-0.02398027074441909,-0.02243581763519804,-2.1494519526771843,24.12455268504618,1.8620285397049177
2727003,0.2612511154275494,0.012361288751290667,-0.022701690259647734,-0.7685751806844197,22.59198821753794,4.670154919663828
2727025,0.2644360159180437,0.0282432142818592,-0.03189880104283683,4.599215743772917,20.41517825678153,4.5146055094115844
2727047,0.2798787662061585,0.015860284503230196,-0.045711517184822484,12.472364622075151,14.966918171380668,2.0314183160580415
2727069,0.29206645876217663,-0.01904335339600288,-0.0509334420152542,18.967831391978045,6.496571127703838,-1.1897684052714053
2727091,0.2849222113228398,-0.06020054505299394,-0.043916500499934924,19.919758639227226,-0.6486191040819049,-4.048852358324472
2727113,0.2624326404381672,-0.09560636127676767,-0.03813635901449298,15.032895509032658,-1.9448410434551624,-5.726360191103415
2727135,0.24631708683487877,-0.12835899947421764,-0.04966076285250067,9.544375822155676,2.3476872855410256,-4.418504842014194
2727157,0.2559040791356831,-0.1645750411942109,-0.07821344163109756,10.267078314530265,6.927166959251383,2.393033785120154
2727179,0.29135808241466715,-0.19346620949592697,-0.1069141748547113,19.069533990303604,6.22271751239211,15.054332438730116
2727201,0.3325264025476813,-0.19319111026160363,-0.11957364055168804,30.5006584212156,-0.8630698113503942,29.199725806871857
2727223,0.35245306184683284,-0.1601769440539463,-0.11364989797398248,36.44751225823182,-10.626326704227825,37.646444977960115
2727245,0.3368700183903711,-0.12051048636239599,-0.09655356514994258,33.157340653241796,-18.086511245711005,36.0585367092567
2727267,0.2953283277872854,-0.10412131368540566,-0.07567096335268772,23.589409954347172,-20.54357624974938,26.617200094800776
2727289,0.25296543949111167,-0.1150038152630065,-0.05502161983042971,13.678015611120452,-18.53426905263268,15.677058635485169
2727311,0.22974567825507933,-0.13415608556970196,-0.03710256993197958,7.282607572143384,-14.510282106864828,8.103477079129904
2727333,0.22741010383375093,-0.1454003174081789,-0.023411207515588898,4.440922410764203,-10.902537980977588,4.266585283902383
2727355,0.23431058801949298,-0.14909910022877462,-0.013695408923139724,3.064330147361583,-8.810252515103825,1.9521058275348386
2727377,0.2390053426694433,-0.15251069963659358,-0.006696213306160374,1.3031681465392964,-7.771619870766306,-0.1373463482899434
2727399,0.23885891856290403,-0.1555145434343501,-0.0016996095279741387,-1.4510435938718056,-6.52299518143922,-1.4499050476335247
2727421,0.23876351464789558,-0.15031709466328397,0.0015292655678680873,-4.7913472448222665,-4.2323066328222625,-1.3762760302986683
2727443,0.2437766014292333,-0.1330466294110385,0.004418815872401623,-7.746042255670532,-1.3436917150706302,-0.6869792959633247
2727465,0.2530019560670644,-0.11133198177083117,0.009933573847033311,-9.16128550018052,0.7296979039632112,-0.7083411646645387
2727487,0.2603259392766552,-0.09823353298565973,0.019728174158164222,-8.289541179020349,0.8920811747008637,-1.6026094596689537
2727509,0.26097977925841,-0.09959937529178825,0.030909389888137653,-5.384331473877426,-0.6040512994026711,-2.1327831459135544
2727531,0.2567370015827838,-0.10905144931449999,0.03695127105453536,-1.6472062225194688,-2.43231544816397,-1.1782330188212267
2727553,0.2539591873149636,-0.11520544385801403,0.03287443401616957,1.5748798269265223,-3.4188101960736335,0.9236901906104488
2727575,0.2565402185741877,-0.11252880003232198,0.019901262730153024,3.6146971137625554,-3.4283008563705795,2.717239740327556
2727597,0.26135514915391483,-0.1054105077037452,0.0053464833297918795,4.6415633101607465,-3.1549352052997657,3.0514330934809206
2727619,0.26128916723525475,-0.1034657004732255,-0.0022500895540066086,5.185552291553548,-3.2301409353117725,1.9790901537294987
2727641,0.25298030282622924,-0.11339439529111792,0.0006985253373707552,5.544218156772351,-3.600901659414973,0.454641868260537
2727663,0.24106649720490858,-0.13346978613025956,0.009902470755031282,5.516544265316602,-3.7243791141524256,-0.5657012054270265
2727685,0.23406181371882825,-0.1542126602382623,0.016478412037667315,4.621268404396375,-3.2745211018548486,-0.7645254062162481
2727707,0.23611364835896548,-0.16526940568337534,0.014541501127379914,2.632143825049616,-2.563084463337973,-0.5018721695697674
2727729,0.24347255487630218,-0.16354802566323282,0.006330974685362211,-0.044557843883167664,-2.2302063234215415,-0.38769561439076117
2727751,0.24893468537554203,-0.15528984867419904,-0.0004005132379665701,-2.570964851386409,-2.5780844698060053,-0.7379563735898814
2727773,0.2487514986096834,-0.14996979910881345,7.31453195071538e-05,-4.308060650589402,-3.2845090082105037,-1.3146042047156015
2727795,0.24491483787852825,-0.1520561849772431,0.0069961600081191394,-5.245437530105785,-3.7588757524633545,-1.563227974847112
2727817,0.2417060004377138,-0.158033832625412,0.015499103565008165,-5.829272069858809,-3.7048057819756393,-1.1360818264266004
2727839,0.24100160386105018,-0.1600208464909671,0.02178843463101567,-6.439461429018574,-3.3278008950831155,-0.2117309626766199
2727861,0.24094587228283482,-0.1516713204091387,0.02548197617979543,-7.080860993835415,-3.080973006161764,0.6708482076697789
2727883,0.2386680413913294,-0.13184540761758967,0.028092410362652316,-7.55013042804909,-3.26213667048402,1.0851405722232979
2727905,0.23379161900426468,-0.10473818488360845,0.03069851538513513,-7.802743716308889,-3.7985705360769573,1.0695525147880498
