timestamp,ax,ay,az,gx,gy,gz
2753997,0.008080503940343497,-0.019339557215873448,0.00022191841265895192,2.6791119790762523,2.4777208222500486,-0.8680742550877587
2754019,0.014446160131743022,-0.017643797961236853,-0.0012169077952949687,1.1411009865158634,1.1907438412983158,-0.5833661195975963
2754041,0.014782008649519092,-0.013112783442269339,-0.0016071470131475301,-0.19421956774198001,0.11676054243519925,-0.3688576305038077
2754063,0.008004993683339795,-0.0055883214526670135,-0.0009774482702859652,-1.1047086939123565,-0.5616556142257606,-0.19514168705834695
2754085,-0.001686469617008688,0.0026121229440476575,-0.00034335460900974143,-1.415054306746366,-0.7780058610809463,0.031903439363106786
2754107,-0.008919286564074187,0.008965799342706925,-0.00047177939682734743,-1.1344491643894823,-0.6585111335156231,0.32979665597528196
2754129,-0.011341423068365391,0.012347465687552059,-0.0008555002116888341,-0.5255009582921641,-0.46410436505567926,0.5725280263675429
2754151,-0.010305985038676628,0.013059335081589142,-0.00021079281624608313,0.024295163843066542,-0.39739799662462844,0.6059111450777784
2754173,-0.008493198700176216,0.012127617204507049,0.001961463506691605,0.2653310599706105,-0.4562421516899173,0.4171058720419356
2754195,-0.007384568087995958,0.010700742662276367,0.00454366818247644,0.2423841040752159,-0.4932410092171663,0.15107840632944833
2754217,-0.006623987776670225,0.009755620122638448,0.005680401707339503,0.19262557875161052,-0.4148572694466733,-0.03821655268524171
2754239,-0.005251932057314374,0.009722930627622285,0.004521050554657018,0.3109143654435621,-0.30661244398676435,-0.11918932161627271
2754261,-0.0034211578548024447,0.009892848150582344,0.00213218743982762,0.6206841905165104,-0.361803798668354,-0.16252049558573745
2754283,-0.002781888180706276,0.00875105906112001,0.0006020560129779695,1.012490728781554,-0.68911267293173,-0.2244732752673728
2754305,-0.004868559539368414,0.006056665220387869,0.001019685041400974,1.3331864796731927,-1.1832501604235672,-0.285261736350451
2754327,-0.009203718106870443,0.0044038766327913976,0.002318993849260679,1.4554867583127897,-1.5843770512733735,-0.31434395840828666
2754349,-0.013500595745065527,0.007039710085593525,0.002438181368780823,1.3560676602163024,-1.6787261754870482,-0.3673013753772194
2754371,-0.015751273483132745,0.013375497072140441,0.0008518867844975652,1.1598538238110012,-1.4611733458471456,-0.5632122011451163
2754393,-0.015623544643109562,0.01806982443804639,-0.00030940091786059844,1.0357861862696494,-1.1264090681699197,-0.9502325397642023
2754415,-0.01392602073484782,0.01612573428805571,0.0018637759651007617,1.0004550517344393,-0.9147611124211488,-1.4301602617946918
2754437,-0.011596873441313861,0.00855907235645645,0.008000660347767898,0.8843190467924498,-0.9311439759328312,-1.8287056847461316
2754459,-0.009565888657736157,0.0016305449941604985,0.015776913007680263,0.5550019253008178,-1.0422708666756177,-2.0081135664345497
2754481,-0.008683175767614336,-6.328933875292405e-05,0.023043832034734122,0.12672288161266435,-0.9187343153986441,-1.9214625394688043
2754503,-0.008658406423150891,0.0006658132956051608,0.03221966121445962,-0.16050770818781318,-0.23094177622282722,-1.6451849386154687
2754525,-0.007273994472080328,-0.00472575623201136,0.05146104122616364,-0.3416854833292118,1.1106875390823667,-1.4133390541137916
2754547,-0.0021039398724153158,-0.02180639072807756,0.08997002296171865,-1.005293686491794,2.899471213642949,-1.5232933269400606
2754569,0.006167687203483864,-0.04385686405791917,0.14949666862503636,-3.0375234905871937,4.92018070123101,-2.02970858588121
2754591,0.013187024060074671,-0.05085794053703015,0.2186525689415307,-6.774508475382696,7.390122702160074,-2.5014097160185846
2754613,0.015046665017587666,-0.02207986744273118,0.27640671637411274,-11.109578207078922,11.041291457695332,-2.2934102293490914
2754635,0.012660492392872228,0.0440836254688743,0.3037958122144563,-13.52875084461059,16.56110724699868,-1.2868821048219834
2754657,0.011189313179686225,0.12097040647397574,0.2943506359365904,-11.562826719820032,23.820497877923245,-0.30196495813607316
2754679,0.015648206728658364,0.1682010106288665,0.2545110237229356,-4.7481612030473395,31.659395132316412,-0.4781406417831459
2754701,0.027616786562639786,0.1603764426127781,0.19603444685952146,4.681281805505613,38.46653682371931,-2.085347279644199
2754723,0.04503115393220215,0.10456209461855001,0.1298510575156071,13.156649269666865,43.050112957132875,-4.1383318939831275
2754745,0.06414367677226003,0.032209621148066254,0.06561645377433076,18.018690963780482,45.19322339438064,-5.403508927387389
2754767,0.08302007527578842,-0.023837930988500795,0.012072600686836417,18.79369558629318,45.6528601075127,-5.622204349216515
2754789,0.10473383047363533,-0.04616359231681259,-0.026057959755056426,16.8536298863446,45.604816848935926,-5.472329242852746
2754811,0.13557315293683211,-0.03452158080857455,-0.05067134872668891,14.23515419878433,45.71465592053657,-5.592718732368838
2754833,0.1764048348104068,-0.00012545537368740677,-0.06675346834035537,12.599052829335006,45.42840479511998,-6.2586792303202525
2754855,0.21519374357619972,0.03825129534199605,-0.07578783625364036,12.685694851037109,43.31425033113359,-8.009684850510618
2754877,0.2329345464768596,0.05787651556703605,-0.07500592793201198,14.202711721504103,38.55279907770639,-11.69389737893923
2754899,0.2222648444538349,0.041883712023646484,-0.06432051794957883,16.103738188683625,32.25697129710415,-17.037130577424172
2754921,0.19907077689007405,-0.008114883768797435,-0.05153059733873996,17.223392950242243,26.957290145612458,-21.371028374769985
2754943,0.18973062023968695,-0.07080357148884003,-0.04705715309595314,16.91898367063957,24.403427592610196,-20.999491450090037
2754965,0.20514812920637907,-0.12089951456454276,-0.053211191287792385,15.129502556187042,23.998120558925454,-14.939810192133294
2754987,0.23222874382178502,-0.14659126217855256,-0.06177714935713325,11.809444665913944,23.68036342371148,-7.163160685950495
2755009,0.25273192106467013,-0.1508724754845146,-0.06357737047467993,6.64898823792365,22.132156054800177,-3.937050221090592
2755031,0.26357178939250764,-0.14046426083510063,-0.05755175617006398,-0.2168230287222373,19.663679928936848,-8.132271087470258
2755053,0.2732471026747097,-0.11934459371490178,-0.04826357919452183,-7.347398803528836,17.114019808752218,-16.34718776050913
2755075,0.2845845655031773,-0.09142871654365929,-0.037391205945645864,-12.428388307423981,14.653075384067963,-21.983791579461283
2755097,0.2902324028937572,-0.06275708707107197,-0.02181052869088814,-13.890785342061639,11.977928837828289,-21.045687484037828
2755119,0.2837944300232125,-0.03847170455567524,3.7755667935237495e-05,-12.068160698284002,9.143278756916716,-15.05143073576702
2755141,0.26757722686815255,-0.020431603579983533,0.02266944483546957,-8.82942210494119,6.659049417783251,-9.093634173191464
2755163,0.24891023650454142,-0.010091201849798883,0.035457496591438785,-6.151340563222729,4.970367951808415,-7.542141368590953
2755185,0.23599688185162046,-0.012220916770299975,0.029653418008318343,-4.610481422514355,4.236499513366234,-10.737945026922024
2755207,0.23904579025048528,-0.031299726067086975,0.00474405627874373,-2.6777827897275897,4.305077508176122,-14.454392304426325
2755229,0.26641638130543366,-0.061279812218283665,-0.02992170641868166,2.26940133556001,4.225905010313132,-12.576062081857753
2755251,0.311352531528102,-0.08289970062683685,-0.05994184889517275,11.31954026716337,1.9976981062013102,-1.8894284939051622
2755273,0.3468152773406511,-0.07863165356572166,-0.07525534568699463,22.111260108213344,-4.062550211201945,14.496847753244564
2755295,0.3446379998899137,-0.05117741864547378,-0.07690145477664483,30.151118514500602,-13.102388093124224,28.684583646250292
2755317,0.3031247782792225,-0.02194740978716082,-0.07394805466931881,32.38008871879532,-21.494130237127365,33.71217501799294
2755339,0.2500318476047019,-0.010658145792818709,-0.07315304749790667,29.187052852581097,-25.503432741825296,28.325335919298556
2755361,0.21579603528402458,-0.020741288792815823,-0.07245387663555594,23.136239681716585,-24.174779400484706,16.849803694692362
2755383,0.20784419552369868,-0.04348816672487826,-0.06480237840381924,16.529349180547825,-19.536626154694506,5.298129917276505
2755405,0.21210548001021265,-0.06880226095172366,-0.04706595966574621,10.36379115839318,-14.465020668382376,-2.4436881061153746
2755427,0.21352678562617874,-0.08855549600094414,-0.024132762177941042,4.830866426516488,-10.694989690452926,-5.947005204927489
2755449,0.21001190291644128,-0.09490636283877199,-0.004722651816922097,0.08085252662269282,-8.44235186319921,-7.136480005481622
2755471,0.20854442979058838,-0.08296757076381994,0.005977773895199346,-3.4551153383475603,-7.1277997022663655,-8.087611920645022
2755493,0.21327805345525952,-0.05776346975272754,0.009797384845268986,-5.176990335135763,-6.139724864922384,-9.428812225862167
2755515,0.21995104832209003,-0.03527481081800605,0.012876968043966229,-4.800777746071691,-5.196126883429081,-10.466860568471965
2755537,0.2207489538726949,-0.03120525647483419,0.019864066312282446,-2.9205153978333565,-4.368411370825006,-10.510075139099644
2755559,0.21280293186914978,-0.0460521662306646,0.029957990583722435,-0.8776715332489442,-3.871261005312252,-9.710097725355064
2755581,0.20132533186606927,-0.0631935087178628,0.037864118113747174,0.3506912790430594,-3.7385858666802054,-8.608469484591748
2755603,0.19485726665139833,-0.06500535869352363,0.03861688340464137,1.163594641973509,-3.648300360342255,-7.341275352770569
2755625,0.19798457916414017,-0.05138047203790242,0.03191242670559915,2.872849234810457,-3.125445744707341,-5.712456201103318
2755647,0.2083798230788013,-0.04046337979136483,0.02213720578135224,6.05109000748167,-1.9940125901076662,-3.883844797971128
2755669,0.2196900120758483,-0.05035237983572605,0.014475453537647788,9.546103466616731,-0.6345879886373178,-2.5173838724920583
2755691,0.22638614481441519,-0.08128441544727574,0.0112073572493255,11.30444632049409,0.24365222347651688,-2.117991726811103
2755713,0.22653805010827985,-0.1161831177862614,0.011513994619168185,10.08591285636439,0.14562754230140906,-2.501788572018458
2755735,0.22175660175436987,-0.13657107362084514,0.013806591783020097,6.341968438029135,-0.8075742662549873,-3.0422299867227767
2755757,0.2155537211735715,-0.1360287177698357,0.017238664223062927,1.6615375607090677,-1.9484095848537168,-3.287874297622279
2755779,0.21121036584252756,-0.11997745916048089,0.021151928657594108,-2.359309494787739,-2.536516805462467,-3.2226392993637947
2755801,0.2099943974085019,-0.09709056001388262,0.02412643652739206,-4.753414900154805,-2.240024175573839,-3.0184470821741436
2755823,0.21071138995460148,-0.07364346212689483,0.024366205179292996,-5.1732543842466505,-1.2739563982134166,-2.721620655690194
2755845,0.21099901130761178,-0.05410850605553234,0.021246658826115015,-3.7931409920871375,-0.17609529984915417,-2.269638203558206
2755867,0.20937441978871302,-0.04279476511958088,0.016488573389525144,-1.3612811221851344,0.5493849303536675,-1.723681736107777
2755889,0.20619409853384207,-0.04227749771211852,0.013497940840011447,0.9703331309214517,0.6859017434010186,-1.326180935044563
2755911,0.20277459079939578,-0.05056601009228817,0.014808348892344864,2.259385767509575,0.35699489556252195,-1.274325984197517
2755933,0.20002040052724432,-0.06129374949433877,0.019566939223342836,2.3793802730881364,-0.08561083499022756,-1.4827648559015942
2755955,0.19813434622038792,-0.06761718830011876,0.023725995314426283,1.9970312636719894,-0.25451975893756734,-1.6119879659722405
2755977,0.19706854184227246,-0.06643484900246116,0.02348915209839737,1.8918662037650995,0.06161477563283345,-1.358506974106422
2755999,0.19658655541555753,-0.05971351142037604,0.01903446755043517,2.25336033985751,0.7543699311892241,-0.7471748308508269
