timestamp,ax,ay,az,gx,gy,gz
2775051,-0.002596844476304474,0.009449379520224795,0.0034927709093245285,0.20722792983515592,-1.4003269152877365,-0.13210198136401088
2775073,-0.003623769152666874,-0.007825438335724199,0.007028163859555107,0.2572921042704629,-0.9553691898223441,-0.30124620121192125
2775095,-0.004643327953099581,-0.015721927399737507,0.009102224725884555,-0.012304095093670251,-0.5388893822329948,-0.2982160965847655
2775117,-0.005248222087760785,-0.011311542646006027,0.008158060364359811,-0.5332539542070209,-0.1459332120134155,-0.10402872410258675
2775139,-0.004606848275879299,0.0004146514540767025,0.0036778546123291257,-0.8874652429868213,0.23120660743917323,0.1492756318553797
2775161,-0.002134369555544034,0.01078581917342178,-0.0025574181230107315,-0.7246053798982482,0.5497120480043494,0.3119771625062107
2775183,0.0016318335083691398,0.013454983569592655,-0.007261373461664289,-0.12056932417545796,0.7280894663208625,0.3244063197180231
2775205,0.00515302597094306,0.00788115705264568,-0.008430826988143118,0.46380568997744237,0.7229489430795302,0.2123906290260602
2775227,0.007273214001690958,-0.0011487399242266839,-0.007240413871968787,0.5642993341460744,0.5731035354987912,0.03504795752424471
2775249,0.00836596061663588,-0.007336552820417428,-0.006710229183412636,0.09710284959151094,0.3497460907326786,-0.1402956939792867
2775271,0.009698627847579713,-0.008083114889244018,-0.008469699196616092,-0.5814513003776456,0.07570198958775164,-0.25763467790761574
2775293,0.01153268188138695,-0.007013192417928408,-0.01112070919491473,-1.0125429197942126,-0.27838029179803064,-0.30653762722771943
2775315,0.012153899204602166,-0.010201955688827912,-0.011762257462328672,-1.0831290691311786,-0.708592636716041,-0.31401844620819025
2775337,0.009205859430182633,-0.01869438721987351,-0.008833903922304957,-1.1353580922738642,-1.1066039644237469,-0.2779339234763601
2775359,0.0021844365288228506,-0.025644597490083045,-0.0034062490221904874,-1.5896145278860603,-1.300543183936838,-0.14437397983288563
2775381,-0.0064337716698680296,-0.022499805890770157,0.00206107166718168,-2.4582150507255816,-1.1821010834328485,0.1070329723413669
2775403,-0.012600975271125638,-0.008021727939687844,0.005929557103447694,-3.266043340691486,-0.7929564938211419,0.38050679825370465
2775425,-0.013405887623419982,0.009909914213190946,0.008349989140339525,-3.455740897375128,-0.290977457743439,0.5125224938284709
2775447,-0.009104238123237523,0.021349094008866608,0.010618997679202383,-2.852259776738048,0.148845133000542,0.391522686387753
2775469,-0.0033918862719830682,0.022055458545488373,0.014508286162352627,-1.7614208006992558,0.4177679964045553,0.01242787688180609
2775491,-0.0014683985045445672,0.01493651680206614,0.022491627331233575,-0.700651371629029,0.5560329868433892,-0.5234597691877986
2775513,-0.0061224748378024526,0.006628603234250834,0.03748977124043112,-0.05417745594532847,0.845740475395642,-0.9959950242622154
2775535,-0.014278431413007374,0.003824928827679515,0.06065449664483742,0.1463272453244301,1.7696420977158303,-1.1365892660721661
2775557,-0.01800674909790436,0.009587058522131675,0.08882038529125127,0.2749657621504701,3.686440631067683,-0.8892365803644936
2775579,-0.010848905592941145,0.018755105258941304,0.11519454567991187,0.9123321321863661,6.410279374190958,-0.6315664362367925
2775601,0.005926223250660819,0.017454899168235383,0.1337999661369046,2.3213209403118484,9.196682005631473,-0.9142446258622936
2775623,0.023997038369458618,-0.00717374600357619,0.14346488882019467,3.8985187809922235,11.3616231342362,-1.7251788434523636
2775645,0.03569922786189303,-0.05196038841065463,0.14721535799961186,4.242365846773289,12.997628224929889,-2.0478138038375575
2775667,0.041137984634615606,-0.09266160214563428,0.1477966292926319,2.113772124878322,14.920278456408653,-0.5008352460120926
2775689,0.04734863102185936,-0.0976601509249061,0.14371817254611438,-2.354389197317275,17.725638512514852,3.2747555783709106
2775711,0.06024921210890707,-0.05113229327939028,0.1295825048357343,-7.2854202769993295,20.96327842625077,7.876988348506164
2775733,0.07793736968100692,0.033046952035699184,0.10124817589149142,-9.962142436390002,23.459882111426996,10.96505172833417
2775755,0.0927592324975141,0.11731008287409929,0.06229154032877956,-8.374592021686285,24.478572402555983,10.938013111212468
2775777,0.09902278108684093,0.16150023516332804,0.02538379881010881,-2.4052831235238266,24.33443070197167,7.934753259023222
2775799,0.09627220327562168,0.14519642301643673,0.0049572097426479585,5.9315325072012355,23.833460003267337,3.4154748050929156
2775821,0.08601785318545309,0.07837295655438567,0.006006873946707609,13.309929070477585,23.489440391789195,-1.0436553469890122
2775843,0.07071442778961053,-0.005357927100865394,0.019482327555322452,16.760886833242175,23.609145508595525,-4.53702303018139
2775865,0.05819932128501881,-0.06894199438061864,0.029768541600048246,15.395478835829092,24.822941859880288,-6.652486404652607
2775887,0.06117826921676736,-0.09288550439785619,0.028215388382313807,10.924949937095757,27.831412192928155,-6.960948602493652
2775909,0.08512018487974332,-0.08331020116342144,0.020247937439980768,6.384958612750875,32.42214733192285,-5.092809082697791
2775931,0.1175883299154698,-0.06282110339000772,0.01909531993862703,4.029302997582884,37.29574601005522,-1.3035370555500774
2775953,0.13708421785355723,-0.05279836425121877,0.031853271391330165,4.105352863150939,41.409375586197775,3.4018368103538164
2775975,0.13679411475923847,-0.060463380470233315,0.051337442173382056,5.257377716506826,45.22142982307916,7.8767391178290165
2775997,0.13621390751422513,-0.07778394319440818,0.06169588001630575,5.810395821174846,49.84190395743047,11.411954282949692
2776019,0.1638831486797509,-0.08935293903842294,0.05182777394881531,4.78612448784077,54.746283608688955,13.686198208864106
2776041,0.22771118737322124,-0.08165784392710669,0.023245559667422144,2.254005230566517,57.020219263225506,14.4288828870321
2776063,0.3046653519406296,-0.04925174812272308,-0.013467044133981509,-0.6838011334679368,53.65202238163847,13.352075443269822
2776085,0.3602708423870934,0.0014080997519985124,-0.046923027496720164,-2.1228921575592583,44.6853940538,10.340456807508271
2776107,0.3767537045169381,0.05047091237941103,-0.06929028159201052,-0.15204414473844735,33.76074450356748,5.618213735802238
2776129,0.3629651387598841,0.0710593448767795,-0.0764783953978275,5.684978460330989,25.363382277793523,-0.17207100635660127
2776151,0.3420526658318195,0.04658357552525798,-0.06889255247162285,13.321022215668545,21.51455475759706,-6.01945767798106
2776173,0.33410793817768186,-0.012348377342697257,-0.053209295475464984,19.051434059457762,20.808462739760643,-10.869042017141268
2776195,0.34801602923378916,-0.07118583150927779,-0.040555566866506604,20.28290585847551,20.045031893341136,-14.08153123829623
2776217,0.380510411049401,-0.09889703361200274,-0.03898667983245992,17.636406720257813,16.63505590595144,-15.633153084273737
2776239,0.41588236863888645,-0.09610946224253598,-0.04539708591430117,13.965544193673018,10.146048328192208,-15.998541394256378
2776261,0.4302018106775882,-0.0940067789497993,-0.045316718963620745,11.082678275574278,2.449530998630638,-15.949859051735682
2776283,0.40773019264556537,-0.1211250040198194,-0.024122919092651855,7.876498257744095,-3.556942521076317,-16.162690072416076
2776305,0.3600722100431629,-0.16935170460212243,0.017417468704701865,2.2270064600172885,-6.207672771182882,-16.474626377182517
2776327,0.3221916946577641,-0.19535889248072572,0.05829190460292876,-5.413034141121981,-6.703043784611713,-15.571847871482776
2776349,0.31886357188754827,-0.16085719138631782,0.07221137651034727,-11.141478421649166,-8.247939318793042,-12.132166515241655
2776371,0.3365154069429078,-0.07375027467963484,0.051703124018113424,-10.581636709728134,-13.110179357708798,-6.591064127398865
2776393,0.3374475220353491,0.012767552941722951,0.017199048311631004,-2.428171369091353,-20.505851975262665,-1.1498065444517054
2776415,0.3024108525549729,0.043691311734686315,-0.000589503268348438,10.70995871450927,-27.31022615451981,2.481102391379586
2776437,0.2514185170842218,0.00557937223090823,0.011082421826591273,24.15625005532038,-30.59621516797001,4.95986277369581
2776459,0.2201584630121821,-0.06859756232750938,0.03655975090555698,33.77730342282434,-29.759549819845116,8.408269408050135
2776481,0.22120155014847556,-0.13178454656608063,0.04938986611939101,37.752436359886865,-26.72961707410333,13.718843665641757
2776503,0.23339346831851848,-0.15997718662938049,0.038274701514499194,36.740310691386476,-23.9871418530873,19.130548036953776
2776525,0.22911508373565084,-0.16276945803344223,0.014167735862340195,32.64900501459275,-21.981471629063407,21.591882609526433
2776547,0.20646293271631205,-0.1634992945386342,-0.0051521947751879855,27.151985246978256,-18.835077147309377,19.406724676543487
2776569,0.18938984121863173,-0.17320040404735207,-0.012368951220481064,21.062017278660182,-13.078098570291244,13.505061922498776
2776591,0.19849602642372635,-0.18339616307773016,-0.012431547004416878,14.703990027008471,-6.203677036692755,6.42470500974899
2776613,0.2283807406178952,-0.17933884568418246,-0.012351791625300023,8.61837913922027,-1.700814520099722,0.4626487488245641
2776635,0.2548816638691303,-0.15640345417021462,-0.013279759116812766,3.839661239920872,-1.5933100540998564,-3.294838725230365
2776657,0.2598391194185911,-0.12475947633654624,-0.011897042402760757,1.4474234625506488,-4.506477683255942,-4.907049522663286
2776679,0.24584094840930154,-0.10187734627525694,-0.00597301995910514,1.7473083076720037,-7.220012337708894,-5.209861605951914
2776701,0.2287863092101834,-0.10139693339583335,0.003757738378644173,3.807579787577542,-7.664266639157213,-5.35133353311016
2776723,0.22044447891514857,-0.12489226826425423,0.015581730176805671,5.813309554481957,-6.183731287992255,-6.039717085363752
2776745,0.2206029534437627,-0.15925427249250726,0.02748698900552719,6.089371540491851,-4.32789681609003,-6.908750520167252
2776767,0.22325263117126942,-0.18306504358020204,0.03602049500312433,4.160257529814204,-3.1081792505509798,-6.869690781704016
2776789,0.22491771352060352,-0.18208055888422267,0.03776309743177857,1.0656151012728365,-2.5724683891708415,-5.421920687456098
2776811,0.22578666247803808,-0.16211474743030888,0.03327323026869497,-1.46328466680505,-2.4678269512994753,-3.4972954406368504
2776833,0.22686308494039403,-0.1439449769655186,0.027465638409730028,-2.4103056288157654,-2.7034969596161362,-2.6592087968735107
2776855,0.22914935631219963,-0.1427868105857702,0.02467216217467823,-2.203853111288075,-3.23879704128206,-3.487856962090397
2776877,0.23392360328168868,-0.15436669371816408,0.02472283154520345,-2.0796769001230953,-3.995307036933102,-5.075939415486739
2776899,0.24039569341128597,-0.1624041983783993,0.02509285215403056,-2.812186721148084,-5.0307314101063705,-6.116868137770162
2776921,0.2426817563230134,-0.1568693942732522,0.025511937851428444,-4.118108632272181,-6.4861760656740275,-6.134354635230139
2776943,0.23254513530261386,-0.14220477189670797,0.02839383348047567,-5.110393275757185,-8.100355186931232,-5.533953218158915
2776965,0.2085749512503524,-0.12986923961683225,0.03478374604772734,-5.0929130147168635,-8.961856077896929,-4.785962330389933
2776987,0.18205742236792968,-0.12697032488077648,0.04164431198893083,-3.979908710869992,-8.127471524471796,-3.8788103145043413
2777009,0.17052694831142506,-0.1324997640139231,0.044058230932974486,-2.2205452452429237,-5.532230868549184,-2.509519676849499
2777031,0.1837263024359699,-0.14148984052653266,0.03954691490838216,-0.3910416223925204,-1.9912745814611343,-0.539692279105943
2777053,0.21532564033491627,-0.1505860032340199,0.030029958547430385,1.2715070352202116,1.734204364309433,1.8327053863468734
