timestamp,ax,ay,az,gx,gy,gz
2782069,-0.005670728339817929,-0.0031743892760379574,-0.0012409230795285033,-1.2346974208041337,-0.5469853985698502,0.03111802261396817
2782091,-0.0011102370456810907,0.00013169608469216685,-0.0001760066919367988,-0.5553858297793277,-0.22517943358779682,0.11798248901874184
2782113,0.0006774903872083433,-0.0023336922868845682,0.0013067938963422184,-0.08191391801718756,-0.03966749881452075,0.061829817468766105
2782135,-0.000615585364404183,-0.009147812808230127,0.002826772265167088,0.01173883777929658,0.04482347361772321,-0.06623200340260264
2782157,-0.002803130904944031,-0.012529514291576359,0.003309847782919206,-0.26919845393371433,0.17674835334213626,-0.07191512150243468
2782179,-0.0032552124088995726,-0.006703482960718779,0.002013030898985328,-0.6113910054208835,0.3971721569052061,0.08556778472635017
2782201,-0.00101393001331628,0.004856904247088494,-0.0004509597942378515,-0.5416891023031912,0.5375984432151415,0.22166901929367686
2782223,0.0024661134955287073,0.011924215753716192,-0.002272461278634269,0.14462623619944853,0.38531795207106284,0.16430572644415622
2782245,0.004334577628557817,0.008354642882693239,-0.001980727068884103,1.092102735503152,-0.05985699044611972,-0.03719650157693854
2782267,0.002607968769927982,-0.0007781906036505265,7.941214284546203e-05,1.6595869784406774,-0.5447025206234032,-0.21632936014757922
2782289,-0.002017728824004731,-0.0052716679140090445,0.0021965626689679023,1.57675265640877,-0.7981705064195429,-0.32655152002447385
2782311,-0.006596143178022074,-0.0025977557007375376,0.003540729255545937,1.2249565691486166,-0.7628382149312285,-0.45777592536171363
2782333,-0.008325489883608829,-0.0011254523841679083,0.005604323400614659,1.1319986790078511,-0.5581108526945819,-0.6286186829736342
2782355,-0.006555295238552794,-0.00885995365140252,0.010759715578692585,1.2671049967094692,-0.27095293564208306,-0.6803583857192609
2782377,-0.0026127855958301633,-0.021674778748805863,0.01937757513956824,1.0491609677239662,0.12821733745181732,-0.45053551726456603
2782399,0.0017450847001970456,-0.026527168010963078,0.029290382463857033,0.10505215947362288,0.6583018338576216,-0.017593904548256083
2782421,0.005024849458764745,-0.017182148203340887,0.03927458130801549,-1.157032903479959,1.208285225078599,0.30874734817737054
2782443,0.005482848378103716,-0.004341583766388867,0.05313145597177596,-1.9087913032886616,1.6545175925729516,0.2888614384217905
2782465,0.0019284813749574183,-0.006650769684798902,0.07842175180674611,-1.8375898991341417,2.1408930326424342,0.009116605023656847
2782487,-0.0029067861224364817,-0.029097343474801574,0.11849288472695002,-1.5927414961888644,3.1316509105151695,-0.28008771335857746
2782509,-0.0007454100639156662,-0.05064463392851612,0.16479360527739711,-2.1723135231550375,4.91824842528898,-0.7138586597737496
2782531,0.01623395297450349,-0.03766631111995433,0.19870440207738146,-3.8138180294346817,6.8904509843034525,-2.277348834521582
2782553,0.044213827889617134,0.023843083099482364,0.20387974140432022,-5.517446633405054,7.506928282071234,-6.657262300039221
2782575,0.06392145872572275,0.10596162204290079,0.17924413141958212,-5.761594103185403,5.534188829905337,-15.239852781535298
2782597,0.0538754898928981,0.15198807981458226,0.14049919712059017,-3.8640221675353392,1.7276909015013904,-27.49855310027439
2782619,0.012876289755420938,0.12050556542832402,0.10740660254130754,-0.8379290754264799,-0.8490469082195007,-39.77313689179172
2782641,-0.03103057587770944,0.02466709047448904,0.0878612554321121,1.0710740779583432,1.1618203943843386,-46.0352061406568
2782663,-0.04048209236334649,-0.07060040842595576,0.0745516862260971,0.012070345743203537,8.356926557887418,-41.4284591153517
2782685,-0.003789081665409596,-0.09706797098945705,0.057753558579855306,-3.8654086003324113,17.374378555396596,-26.76240070057466
2782707,0.05103847907158115,-0.03812046118293013,0.039144730351181586,-8.313699183022486,23.325362230209926,-9.850292329061599
2782729,0.08250168085240954,0.0598793641991359,0.029603090252681825,-10.719131212818969,24.054089523560688,-1.011625339600099
2782751,0.0762541922398832,0.13060077284134555,0.0339687676787771,-10.075153795753465,22.012430372333817,-5.40140423504302
2782773,0.0556699995011973,0.1426841280072684,0.042556054545301036,-7.2296212480134345,21.663886382225712,-18.82724208416493
2782795,0.05299852118102895,0.11461022071911421,0.040480284486302955,-3.429610866154304,25.113960056337618,-31.116820448276556
2782817,0.0761325337456128,0.08183003161101049,0.023926642827116675,0.8584602554306526,30.456299725335633,-34.000137672568606
2782839,0.1050870466625275,0.056894938585872676,0.004948749363492266,5.475693856435061,34.12644142668925,-26.514205811474497
2782861,0.11578144494595582,0.025196204925362176,-0.000520002501878418,9.335995599580809,34.445454333756665,-14.066506921971644
2782883,0.10416230036971745,-0.02468544370523749,0.010619525022724008,10.362671599728266,32.900391906412885,-3.397515071173725
2782905,0.08969357625731636,-0.07681807568644054,0.02411862928743129,7.1591614997457445,32.347237861185675,1.7640485020569006
2782927,0.09760569412599808,-0.10040037941266648,0.021050364279644882,0.7911845272487392,34.11666067716359,1.8059350928535851
2782949,0.13613391196521812,-0.08164622829244553,-0.005112733182695699,-5.469681019188682,36.70537184931267,-0.3563774802836783
2782971,0.18889460802888278,-0.03490537756702821,-0.0443013529075939,-8.629847713098497,37.169271770094795,-1.922171238897866
2782993,0.22923921969978742,0.01658075716395275,-0.08097035524290841,-8.35099633287574,33.864996272991625,-2.2970697042117996
2783015,0.24243543603838952,0.06131437084468496,-0.1063700227359308,-6.726451879000923,27.945579431182747,-3.1795965016322474
2783037,0.2351010470574966,0.0974544933962091,-0.11960389857620611,-5.622831780045299,22.2511546771681,-6.381913112996529
2783059,0.2269038928986624,0.11851095034412042,-0.12117339462081395,-4.333817463487977,18.74638015040082,-11.308877190865916
2783081,0.2359244710009852,0.11165355788566154,-0.1107230176960846,0.02877375121263792,16.880473178101205,-14.674511869356055
2783103,0.2674329812309826,0.0721789115536973,-0.0912071393739977,9.654813796349403,14.195155228518963,-12.871968831298906
2783125,0.30842040882523986,0.013252047791384416,-0.0704876394777745,23.229846989720055,8.56489754856957,-4.840357729533818
2783147,0.33278461674019794,-0.04399265433647771,-0.05550383931523168,35.88861475254913,0.24747323979617208,6.975308826212077
2783169,0.32029356908009,-0.08715796950672448,-0.04629207387146967,42.37064396183064,-8.003605340901203,18.15288285974658
2783191,0.27493308889057605,-0.11456804037397801,-0.03777205645225635,40.78279721989295,-13.049217764772745,24.93809819959268
2783213,0.22179423094760214,-0.12519565079338896,-0.02624547406902832,33.615076567666655,-13.883639075428091,26.008888222721225
2783235,0.18483305607077535,-0.11660182171945778,-0.012717403843685133,25.376978027395708,-12.19221259937203,22.431384733125622
2783257,0.16979811884046309,-0.093216361834524,-0.0014889878805784702,19.35582298207096,-10.534883898190033,16.515273273051438
2783279,0.16725989641449765,-0.06764202110647374,0.002577799598192063,16.158857868720254,-10.069562313644312,10.707577726460073
2783301,0.16674360376630862,-0.04988370716378685,-0.0031787884156364277,14.505165696408058,-9.963655655447074,6.783211268716437
2783323,0.16502940319186915,-0.04007867378815106,-0.016249563722282243,12.939936549389582,-8.807682410457769,5.126392743178369
2783345,0.16342497183761057,-0.03484782880711655,-0.028373934268248892,10.955540248653454,-6.3347017901173,4.552149853039355
2783367,0.16231046310015187,-0.03608837952742763,-0.030392129008947805,8.904251090215505,-3.591139087814937,3.3344546042740824
2783389,0.16133877411627695,-0.0477439783398027,-0.01970404206789359,7.237220235261063,-1.6304194367282439,0.8538769502221343
2783411,0.16302223202307964,-0.06565679332825754,-0.002604342007053873,6.08775977510059,-0.49339808055372747,-1.834607015068517
2783433,0.17169296506738957,-0.07770293071372016,0.011777867659532022,5.521337501928211,0.4009847167221618,-3.2617718757073626
2783455,0.18691226832040736,-0.07699963366976058,0.019636904638148916,5.785062061871827,1.2560638956712848,-3.238229698651036
2783477,0.19998544788633194,-0.07127770388513179,0.02404390104416719,6.983437307792634,1.7027334067902586,-2.971184005393988
2783499,0.20033262876984587,-0.07539494884723281,0.029228326193584158,8.594963508525442,1.5500443259940155,-3.4523247086189888
2783521,0.18636191090840204,-0.09554256726665247,0.035139461515276096,9.603296033652638,1.3205106096649797,-4.108730735147552
2783543,0.16846342507103165,-0.12308743207839215,0.03822864775358859,9.209786381267726,1.7489542768316562,-3.4328891882548627
2783565,0.1599028756800343,-0.14272726546672498,0.03603623407345463,7.341575867125123,2.8593692313270864,-0.8697222787276397
2783587,0.16536714355242343,-0.1442092403942072,0.02942441016910532,4.525420111238804,3.8297556156873234,2.3134628486715583
2783609,0.17900163616782733,-0.12761074056238386,0.02099624801180628,1.4931122168860342,3.852032283878966,4.18248617632912
2783631,0.1920274026499173,-0.10169526418844746,0.013256544643340175,-1.053202492543163,2.968126836736051,3.9386319806260786
2783653,0.2000910102777981,-0.0787407012430739,0.00860750183891934,-2.583875585285937,1.9590839239508124,2.421079184055712
2783675,0.2035902771055844,-0.06809344829968322,0.009362069096326876,-2.9505723557522128,1.5181991625874798,1.0164150076798288
2783697,0.2038697783766408,-0.07129074652290115,0.016157678247645982,-2.4667457547009275,1.6747896377691942,0.36387830272592697
2783719,0.20141258903961057,-0.08235664028430763,0.026412764766246644,-1.6471975044664804,1.9860749375300195,0.15116995410431974
2783741,0.19699035872675524,-0.09323789713281733,0.03532029340290189,-0.8401248879708039,2.0921736449132258,-0.12463854242128422
2783763,0.1923663626670639,-0.09921721189918241,0.03896626903884567,-0.1633589414321832,1.973359109511759,-0.5160025498958458
2783785,0.189097445036733,-0.0996266883998241,0.03657679534146118,0.2866005717354727,1.7879828502601551,-0.7323796749727017
2783807,0.1875139070961435,-0.09523410650711675,0.030066342166069245,0.3812106040385684,1.6390834544201205,-0.6106483306099699
2783829,0.18735906138492278,-0.08712516333963352,0.0221632850852479,0.18622422992621518,1.4999966733035697,-0.3137673292137748
2783851,0.18862209535014687,-0.07838742650026945,0.015324469382742288,0.05982667419052201,1.2490048444463904,-0.15549010559084583
2783873,0.19094283135884624,-0.07480460819871938,0.01171309444336794,0.32746716145920096,0.7636323938453258,-0.33828340003059526
2783895,0.19274783341072957,-0.08108075132029792,0.01277714199238195,0.8573170260599915,0.07506328677400906,-0.820032368556766
2783917,0.19218106077891858,-0.09501316456567693,0.017904225305179843,1.096975537266004,-0.5640010581646333,-1.3723922198160603
2783939,0.1890869299118406,-0.10677020989607136,0.023894657319033313,0.6417864441648478,-0.8676134724295188,-1.797003982650209
2783961,0.1853064923064395,-0.10666498700656896,0.026993784199215973,-0.2559562962301581,-0.8039563257123152,-2.114609532917721
2783983,0.18282007533909075,-0.09475754030503952,0.02615998067661608,-0.8647372104224296,-0.6148724229381779,-2.5070909726850625
2784005,0.18220702046358575,-0.08188360661172783,0.0240817345633942,-0.7154408672081098,-0.5230615001756315,-3.062466702668464
2784027,0.1829909901525688,-0.0807105921705213,0.024681062415474,-0.0694811447999718,-0.5035036033787283,-3.6420672113286687
2784049,0.18464968361269887,-0.09607037676161864,0.029804278078843095,0.4505518860848116,-0.39006960890079223,-4.042596645798169
2784071,0.18680641914528937,-0.1226811611705495,0.03816637788376605,0.6125869983175732,-0.13530237897873165,-4.244968515050914
