timestamp,ax,ay,az,gx,gy,gz
2711867,0.0122717444946316,0.012146172749928958,-0.012408430586238434,-0.4522739825155734,-1.278537094722131,-1.2541668260434262
2711889,0.006321869166439471,0.010798836032210364,-0.0077186664573697834,0.1473859994869878,-1.4059813072910425,-1.0244928692850277
2711911,0.0016217912041419152,0.00502368669447939,-0.002137919233836932,0.6479521891664471,-1.3001369593754672,-0.7668953394877542
2711933,-0.0009538326789198918,-0.004761501041786467,0.003916168745770304,0.8908913128996644,-0.9569256874605356,-0.47638053949449766
2711955,-0.001626820905700844,-0.01301349361977402,0.008403734405452978,0.7443932506707496,-0.5279860990260462,-0.14206164362306498
2711977,-0.0018118267859264189,-0.013936717095555738,0.009054484649538432,0.2616279940119097,-0.07615651950991098,0.2565950852198463
2711999,-0.0028307705677072634,-0.007213594113444455,0.005679063552028288,-0.2941197887796598,0.48435071263824603,0.6746115454868526
2712021,-0.004436984074737293,0.0011353665089480027,0.000873827939916217,-0.6328400300270715,1.2028810263700602,0.9689148392880601
2712043,-0.0049049632925010425,0.004191662104082416,-0.00229025535911885,-0.6637441565589555,1.940268935818243,1.0136966107684886
2712065,-0.0026922343931217525,0.0007373980645895744,-0.0032212541677462177,-0.5315304292164242,2.447274441923296,0.8490367080621773
2712087,0.0019979051600404175,-0.0038947778275966096,-0.0038132093344170792,-0.4267573609841127,2.564205424913697,0.6615420764985649
2712109,0.007203222397267361,-0.0037393050162472215,-0.005671255262426012,-0.3794100575539119,2.3277017249122043,0.5900483989748156
2712131,0.010603445139768837,0.0014325022327126367,-0.008165387190686454,-0.25839714286656223,1.9127891395842502,0.5767529782859853
2712153,0.010964382264937863,0.006020621467472343,-0.00936005017566223,0.03543599682582159,1.5005457681770706,0.4550302404709633
2712175,0.008543952477908718,0.004764353184382164,-0.008315636669024665,0.40832236016405826,1.2023299407371073,0.19688293570268015
2712197,0.004609853983709698,-0.0013248951441752702,-0.006396748321428523,0.6276441403976952,1.0742055493373854,0.01991673935946265
2712219,0.0008072190078147194,-0.005549518087426722,-0.006563585326005881,0.5427097219494031,1.1251987820986074,0.16274725289949954
2712241,-0.0013999218609797408,-0.00237493249360946,-0.010929117414032125,0.256958363710969,1.25363269243035,0.546006864403902
2712263,-0.0014500072611145578,0.006290127770563432,-0.018229417196958923,0.0742696490665157,1.2291170902364974,0.7642625251677773
2712285,-0.00025805614530642563,0.012104373891065088,-0.02382730675691349,0.2329574728904324,0.8657562747726258,0.5060089773369928
2712307,0.0003517854999962669,0.008022913940188,-0.023159358451334367,0.6489111858040632,0.26301786932965504,-0.0582033566813746
2712329,-0.0005080024638444878,-0.004858187595866536,-0.015738445080916336,0.9334469768141965,-0.20984016762443836,-0.3923558534793554
2712351,-0.0015430326283449175,-0.017944734482333816,-0.0055036089406306455,0.720863402583881,-0.2589059555144727,-0.10188876193197048
2712373,-0.0007109659670614025,-0.02229025370952364,0.0032297017231958493,0.016212238397480004,0.03181292937460153,0.710202444770612
2712395,0.0017142267592014026,-0.015572498677022217,0.01018467703115727,-0.787850959255241,0.3305895138476511,1.543332753743757
2712417,0.0024516460721078033,-0.0031442814899922894,0.018955659305256063,-1.2722765775197107,0.5051699632762844,1.8639687855627558
2712439,-0.0011735249613390691,0.00743084209513456,0.03193873866579216,-1.3892903247071025,0.8576673364568134,1.40946321022801
2712461,-0.007006633288801799,0.013545896320177936,0.046209172298984746,-1.4591292830898102,1.8346172737355304,0.32567195692307027
2712483,-0.008567370988494654,0.019404856906172302,0.05650566904171552,-1.6922787925396348,3.5135420057508693,-0.8318432840709562
2712505,-0.0004232629331183453,0.029689387600069603,0.0634217993275706,-1.7410563165004338,5.458243152417315,-1.3055283642926994
2712527,0.016726924540433518,0.040994854057392255,0.0767949461322521,-0.9419478576444085,7.161082860744719,-0.6521550158838355
2712549,0.035806438691820895,0.04159825252196015,0.10715663644667392,0.7779461361946771,8.652538568099052,0.6926107387279651
2712571,0.04839332066253521,0.022980310578121173,0.15128367572077542,2.343129123764993,10.595875754484574,1.5059077780777017
2712593,0.05153657121778555,-0.007527932199899275,0.18744556569792709,2.333485656557428,13.56451992935322,0.8905421971933766
2712615,0.05002688837773943,-0.029002757073140786,0.1892210676450312,0.6703007498920732,17.022195619628867,-0.526890853115485
2712637,0.050362619259999054,-0.02644215358847922,0.14790451782679553,-0.7907975887977576,19.168293940805263,-0.9540857548988337
2712659,0.05250847506368437,-0.007931757680030491,0.08218626520077366,0.025809669514257574,18.336413081635637,0.5641667792614372
2712681,0.050668833632304365,0.0032806935743389283,0.02423361266471199,2.9944731256641575,14.906965119999317,2.8289253405797203
2712703,0.043488171370735434,-0.002612730865856442,-0.005645397619455072,5.638675134072116,11.549141984551378,3.788626987521159
2712725,0.039922210877185935,-0.005946276924106285,-0.012152326430322925,5.810028188256567,11.025023659191111,2.91683371111889
2712747,0.05076435800999277,0.021895734557117477,-0.014841548225646078,4.289568189419681,13.572597342731472,1.4759820321275885
2712769,0.0742769279997002,0.07981877201300533,-0.026356191082086148,4.332911255750709,16.631291190793444,0.45687839586398443
2712791,0.09373321567723576,0.12488955443451645,-0.04070225927947604,8.46546253048111,17.338765821800095,-0.735323045265024
2712813,0.09251679581082405,0.10783198924465286,-0.04204269926396392,15.60683198874872,15.372334536736652,-3.036605184984551
2712835,0.07192954534868615,0.025034621877581428,-0.02390667118226404,21.350885052320965,13.291384708797771,-5.8236045170976265
2712857,0.05183447667234244,-0.0690192230306194,0.001940219797876214,21.497475582553722,13.979638064710798,-7.104709280866964
2712879,0.05230776828484442,-0.1084991141670504,0.017069654939427224,15.848809162606194,17.729110092164504,-5.702198946240958
2712901,0.07557677488968649,-0.07676461429084451,0.015782760977916685,8.556931327648186,21.92977905809443,-2.7603399368234527
2712923,0.10652182932024894,-0.016895202870060314,0.01007162310975514,4.406077691235023,23.621005525845078,-0.7408982700249972
2712945,0.12839794189524775,0.016534982955701213,0.014575431781600994,4.736265096864342,22.17241912170172,-1.044692827290978
2712967,0.1349792053338579,0.008646397949648625,0.029773978128411763,7.179927317768912,19.459002104987903,-2.8974522678132444
2712989,0.12893472548839585,-0.01448581892586589,0.04262346796385667,9.006637029907399,17.82854727400342,-4.511223014485183
2713011,0.11489751196679501,-0.025855420276960053,0.04140614515625328,9.907550462722286,18.26394303608428,-4.901082409836249
2713033,0.09860378279312286,-0.02735880949978021,0.025874049671364082,11.238039414512704,20.186187360352314,-4.286737593750998
2713055,0.08977926501552062,-0.0390311111847431,0.00351372110024528,13.245349945714818,22.26792825726852,-3.091020609708632
2713077,0.09923957308679891,-0.06866339347441125,-0.019010797568263304,14.056446704122834,23.248537096070688,-1.304669845974906
2713099,0.13016257667855155,-0.10189863614014849,-0.03833836552385909,11.705567857132692,22.659550679814718,0.9360744637139484
2713121,0.1734357509404074,-0.1215079623464972,-0.05211641595105436,6.499960670133017,21.35318115981153,2.814974908525036
2713143,0.2128694853965109,-0.12654948194156979,-0.0587455431841722,0.6451929999309963,20.98860805770882,3.4971621688892403
2713165,0.235382818170071,-0.12674637458018645,-0.0592389956520861,-4.221904433408264,22.392956391178135,2.996499404774156
2713187,0.23797121389636594,-0.12399368726039776,-0.056583621031738286,-8.201784218092355,24.527813235574985,1.846832818702191
2713209,0.22795615519424378,-0.1085432593406722,-0.05272763976527383,-11.621222693305294,25.49469771458365,0.2554927974985987
2713231,0.21744040055753736,-0.0745307250120852,-0.04737732402746963,-13.259238123174336,24.408428863992004,-1.7910329170115107
2713253,0.2149041044124265,-0.034209969428150674,-0.039332953215072936,-11.038328684071992,21.910284511375576,-3.855638894972575
2713275,0.21957043239470922,-0.012963676389110885,-0.027967536370788273,-4.626845215692013,19.16330158145069,-5.250814510188989
2713297,0.22432344095440523,-0.027956840451846997,-0.014964885214077751,3.064939180095277,16.988490731718088,-5.973676207486846
2713319,0.22527882319410436,-0.06925887557854843,-0.007028108082170445,7.565708528091874,15.836821659286567,-6.807031448864888
2713341,0.2276972647828222,-0.10255472915189791,-0.015041844350663431,6.775890307013764,15.797651745110484,-8.038682248789367
2713363,0.24107819843283265,-0.09615697473826702,-0.04497025471403949,3.767286326835384,16.304129437939274,-8.201978838823852
2713385,0.26815686135171735,-0.051456426000084675,-0.0874213684725871,5.1706128895956205,16.20496946988725,-4.620927199533104
2713407,0.29915673230973006,-0.0069436189311324805,-0.12072438070257047,15.387213921600763,14.468036075431696,4.095579644139366
2713429,0.3178133964010212,-0.0067987676028974965,-0.12875917439520146,31.532850525953567,10.87933145618259,15.738371859029806
2713451,0.3142453086121293,-0.06120721866912576,-0.11412974098764411,44.592762218895416,6.140961551344106,25.06813941455843
2713473,0.292393428685843,-0.13778026702205118,-0.09153584889741538,46.45992449875693,1.411609430974293,27.413275445949083
2713495,0.2654098490425772,-0.1917969590664881,-0.07176892883179511,36.216195261466005,-2.2810083509404313,22.078390484749498
2713517,0.24501226135215273,-0.20214047021381396,-0.05591114636018989,19.961498731752997,-4.4052555671949944,12.441521844891623
2713539,0.2350358639803921,-0.17959283803220938,-0.041537294499880494,5.402773808778637,-4.994267787445791,3.114440694084507
2713561,0.23266122782760226,-0.14907057857783895,-0.028237125977843773,-3.1971840013732438,-4.48310030641302,-2.9566983050907085
2713583,0.23340949304493286,-0.12950711313488716,-0.016532054790705204,-6.1096651316946895,-3.4257839315024334,-5.387446435227851
2713605,0.23462239224793957,-0.12621196277148566,-0.00554996088054483,-6.030573607525734,-2.2808283778925014,-5.432519557700436
2713627,0.23553693152170088,-0.13403834066274262,0.006045217873671861,-5.502824573442493,-1.3593059868443402,-4.61719259156564
2713649,0.23577123553925458,-0.14411629401335693,0.018039115992879287,-5.655504210876692,-0.801972870957248,-3.8996136758141415
2713671,0.23474313932944413,-0.1487952935355623,0.028422018624327576,-6.316539709985089,-0.4850907173407563,-3.4390266439202337
2713693,0.2326115169601158,-0.14312062446752222,0.03421262587702739,-6.703964309744161,-0.02555069801595635,-2.756730656605109
2713715,0.23124860382570253,-0.12555054604717233,0.03240879891557383,-6.063486002644668,0.9206162207803716,-1.2921049447752888
2713737,0.2334759253880039,-0.10073514103262435,0.022042771525015062,-4.094437743529542,2.2493719049883087,0.8211817438773743
2713759,0.24062985508442597,-0.08065898539447872,0.006678559228325642,-1.1732454667305308,3.361460286923796,2.5050238795328807
2713781,0.250659077688658,-0.07787060761714061,-0.006264065888048342,1.7442526570062857,3.6515040747423173,2.575864003775671
2713803,0.25887672867229505,-0.09417072200686386,-0.010465080024886112,3.600781595210032,3.077234052418725,0.9822769207433162
2713825,0.26097440589491283,-0.11762595277781418,-0.005178877629416363,3.8040805242488585,2.190660952631886,-0.9920345268521437
2713847,0.25577107894603623,-0.13371404981976562,0.00569797571653926,2.4640369129814643,1.5908461579612971,-1.9465450897462253
2713869,0.2457791654878557,-0.13957760744757167,0.01823618416564937,0.22855113135511484,1.3806146835231161,-1.7358333304435172
