timestamp,ax,ay,az,gx,gy,gz
2690791,0.005549711558280468,0.005420849026139909,0.002379807379142403,0.09814941290872164,0.05798222260403056,-0.6306199098479539
2690813,0.0023937727416772515,-0.0004093619533734961,0.00384056509830068,0.48297838150929034,-0.0639286678374436,-0.5287415802568385
2690835,4.884813036851144e-05,-0.005851209130507242,0.004646623138252743,0.5412403126192838,-0.1438769475115569,-0.4508207547539423
2690857,-0.0009361310192046543,-0.009052329756793235,0.003971858109149769,0.19369790611899756,-0.11827602248502742,-0.36665784734801055
2690879,-0.0007356807946266731,-0.008032502845501836,0.0015193593700858882,-0.33284812898818494,0.03885260329794838,-0.1878521173417579
2690901,-0.0003546098044540521,-0.003156450344533652,-0.0017737912628795953,-0.6844871289131597,0.2389143295915783,0.14275012631191875
2690923,-0.0007060394256989015,0.0026862964834283576,-0.004255782535774315,-0.6512569784387382,0.31827391862326876,0.5247972876203749
2690945,-0.0013823178754958252,0.0063997322073702295,-0.00482861058177498,-0.3027876407008795,0.18448558100616388,0.7086820828619509
2690967,-0.0009124281993494994,0.0067310546794529785,-0.0035596640850791175,0.10654994432938225,-0.10405349915301854,0.511246178161242
2690989,0.0012662868615643005,0.004414344983443756,-0.0012960720775559702,0.3459790939299556,-0.4121853311313658,0.037553696160578236
2691011,0.0035225053191088092,0.0012225035684026498,0.0009753960075821855,0.3408746650051437,-0.6420277677922903,-0.37514411785030494
2691033,0.003481118972619312,-0.0009319885064806592,0.0025169215916438312,0.15976538134143228,-0.7673569979664583,-0.47545183491853144
2691055,0.0007493143570745901,-0.0007009356754724204,0.0030467645103033993,-0.06729263312528967,-0.8087106852766908,-0.32754163269606623
2691077,-0.0024807523426612433,0.002217204158400538,0.0028177112856656293,-0.2132445849436317,-0.8073887970809951,-0.19309317924059372
2691099,-0.003790778628596964,0.0071624706666085225,0.0024696081123801897,-0.18722053256347174,-0.8000838336247711,-0.22654431933039007
2691121,-0.0029836041584890482,0.012770474655244956,0.0027491109784091535,0.06264255472000867,-0.7962553377201624,-0.3484254395207658
2691143,-0.0018461539305029667,0.016517843789826743,0.004330981394775884,0.5676233168081087,-0.7872144317744555,-0.4045173601404584
2691165,-0.00190817218215619,0.01448125398834778,0.007803085050383052,1.3010512688589704,-0.772171298730587,-0.36697223888051006
2691187,-0.0028335231106334023,0.003817969926718658,0.013711911616345655,2.0348461105691267,-0.7472727629477105,-0.34631312600830927
2691209,-0.0026202700887244376,-0.012531443894348638,0.02255668001379247,2.2514557191406066,-0.6656672020621021,-0.4890652814156057
2691231,0.0010109192232030642,-0.02473050679115716,0.03464984270972257,1.385825167168784,-0.4378438290200252,-0.932244097950213
2691253,0.00859665133079614,-0.02346708484443644,0.04997949028054993,-0.6312894831032043,0.02708247853841652,-1.7267600677056523
2691275,0.01698757734690181,-0.011138421793980495,0.06852706656788486,-3.0580326062724135,0.8491265633570814,-2.558120994529696
2691297,0.019999146180916094,-0.003758796484180841,0.09088461106337123,-4.808837536560881,2.3247412374369585,-2.5286353317586343
2691319,0.01401662092340242,-0.016337770862263838,0.11738023505764518,-5.500242895562383,4.965321590874416,-0.608200199207884
2691341,0.005277895272047304,-0.04257736400169723,0.14439222521300873,-5.997324898665836,9.050788717737056,3.2066537725349775
2691363,0.009375072341475168,-0.05192727079756102,0.16145303003162353,-7.5416650096866,13.795042859829321,7.116244847112197
2691385,0.03758637807152001,-0.015090885115225307,0.15611364635294464,-10.007722076199173,17.053907432183518,8.403977662676471
2691407,0.08050027463130598,0.062397224557687696,0.12601362979116476,-11.22242154745209,16.530379984392475,5.692399135839708
2691429,0.10946590026970839,0.13620099892796853,0.08485779083025463,-8.64841243818347,12.015119564473462,0.441841636760405
2691451,0.10135733880356801,0.16034411125665823,0.05152154239122938,-2.0961235375883556,6.537110311423905,-4.061776062453829
2691473,0.06305678734840288,0.12939818693292598,0.03247221426166843,5.571615695129557,4.5627949693478,-5.417099454086497
2691495,0.02662998995852017,0.07976185739446118,0.018796643368700905,10.870310961941295,8.198280157354578,-3.9259109139131674
2691517,0.017966394193437048,0.0502856042457409,0.000798097697035755,12.686421052819815,15.088800055580144,-1.9790220699231567
2691539,0.03347717791845101,0.04803237482673219,-0.019998813738416995,12.5929122672367,20.604649182542524,-1.8563971431008934
2691561,0.04966472042750496,0.05234907992493157,-0.03557978946885811,12.647414468889965,22.25368222852,-3.944459215833626
2691583,0.05108353217265488,0.04219453163558568,-0.042499426628487394,13.573662709055416,21.554423602290093,-6.702452056182321
2691605,0.04363809032514045,0.013408100719124136,-0.04332119376298982,14.881887152056072,21.607971824032948,-8.20269829064239
2691627,0.042513272882113075,-0.023731003301981756,-0.04031426710343639,15.814545090852011,23.596338904883908,-7.825711797903934
2691649,0.054264993288483866,-0.054932097446485674,-0.03339845749910912,15.813321175060212,26.105698386294222,-6.617989622746259
2691671,0.07363884253053206,-0.07107722617536491,-0.023714875492136786,14.627939157296499,27.26601410483313,-6.101495935911817
2691693,0.09295307831878355,-0.0733597636902434,-0.01425324690665989,12.477014204091954,26.666819142211637,-6.799058855776642
2691715,0.10849457460549207,-0.07098505979591523,-0.00563027038361616,9.95852974525593,25.204302651448682,-7.9368746674594695
2691737,0.11860497014622615,-0.0717869736921962,0.005128430954741907,7.518644770976928,23.91049379034481,-8.501153818317285
2691759,0.12216190970402388,-0.07497286347358341,0.019249561627718712,5.144602479907015,23.442158150359717,-8.333186188569977
2691781,0.12247102594497081,-0.07444395854232651,0.03187925097738002,2.8587030123679305,24.227954550801815,-7.929789626564773
2691803,0.12871485050857112,-0.06830374001792068,0.03586051808905399,1.33757877672002,26.27021554280093,-7.341808741136707
2691825,0.14789431865166336,-0.06194753812961701,0.029143300232672413,1.5030779056656716,28.565543041932912,-5.893249893415843
2691847,0.17484522598843397,-0.06051072755058337,0.01645510223881232,3.3362053771042484,29.25716694838304,-3.293054325570441
2691869,0.19412990230550392,-0.06116424876027556,0.0041219991634678065,5.567300307432184,27.063639227382954,-0.5423660426632344
2691891,0.19451445811085571,-0.056640706998736676,-0.0050972027049706325,6.942746589039864,22.794422361429113,0.8211774004298344
2691913,0.18061952375096202,-0.04599556198187408,-0.012682934737965272,7.539289027784026,19.130985803997003,0.24623599775389995
2691935,0.16873368244069653,-0.037877375558378404,-0.021843810866363243,8.40252215035827,18.493586476568623,-1.4426932733139528
2691957,0.17218403564231582,-0.04113815233866702,-0.03434851729544809,10.04764383129349,20.99812086229107,-3.037517299947823
2691979,0.19201465933201428,-0.0544390461268451,-0.04858191953178233,11.784000422119593,24.4843518693693,-4.001333653298527
2692001,0.2194215588320055,-0.06760409681038128,-0.06068600065688911,12.531423718640093,26.378710394111682,-4.681886511037778
2692023,0.2434996920691407,-0.07258566417266983,-0.06809685012927237,11.95977980397358,25.548036855337184,-5.765523080523302
2692045,0.2573128193851609,-0.0713908527818905,-0.07129293147984714,10.767061574553287,22.81898644913259,-7.386321030659613
2692067,0.2608738187397152,-0.07355531576675015,-0.07146634934621753,10.019603529939172,20.114971560274792,-8.640910232356271
2692089,0.2606548544001287,-0.08713902132661905,-0.06765667229329445,10.114497160559896,18.868273687605424,-8.40097632352636
2692111,0.264808464065326,-0.11147167341078623,-0.05799740968402928,10.082393044299575,18.778816822767755,-7.012474457607691
2692133,0.2768308149885831,-0.13630706822624053,-0.04401295030978412,8.006304757572998,18.078316628952876,-6.7605197189549155
2692155,0.29321885244838314,-0.14757757420920356,-0.032092101626500766,2.6854435687570604,15.327976613013385,-9.784510745914726
2692177,0.30695153548058074,-0.1369984564489834,-0.02893593272019547,-4.769012984316072,11.02127990682564,-15.346041795972083
2692199,0.31275858728367295,-0.10944382372575792,-0.03500506285236411,-11.242797960265378,7.206508396905992,-19.768083535144545
2692221,0.30981920325259954,-0.08080806741351072,-0.04312045932728966,-13.955078946737128,5.535756969750753,-19.53646795420165
2692243,0.3014500124002508,-0.06589739880530268,-0.04429082802504289,-12.685254125620034,5.883582219648626,-14.419165329807745
2692265,0.2930887138834618,-0.06689462297588383,-0.035152464441473824,-9.761193974192054,6.785494418357268,-7.580312570980824
2692287,0.2892959619505374,-0.07367016513530503,-0.020013654604701933,-7.957233175815806,6.877203570681921,-2.9262267469618797
2692309,0.2912151245776262,-0.07418995417305951,-0.006600748746740678,-8.324685531418767,5.84320114913063,-2.250555335189938
2692331,0.2966104705921027,-0.06322094242460372,-0.00043561401323349207,-9.685985896566704,4.308734136749721,-4.319417683250298
2692353,0.30226455239153655,-0.04315149654190024,-0.0021429801793616055,-9.864438257148665,3.116654778539995,-6.217961315244793
2692375,0.30595084002050754,-0.021212382673317376,-0.007905259736471434,-7.457145726213437,2.678423965899962,-5.7342300673883875
2692397,0.30656307532409366,-0.007083636093383912,-0.011824914955034021,-2.8623223425691426,2.805269464162735,-2.949156676837924
2692419,0.3038973497072169,-0.008556854238016694,-0.009662934767989345,2.0314178694660066,3.009591535941727,0.1646064387888539
2692441,0.29926229898246665,-0.024999756626825742,-0.0021777832149302216,5.189191912308512,2.950675795956467,1.6539598343032875
2692463,0.2956730935120332,-0.04597538287982919,0.005378607881982423,5.822263656093621,2.654215804630657,1.1916585298063957
2692485,0.29621111313253423,-0.05981294872212967,0.008288706988970607,4.77926247177532,2.3742771043171356,0.016148362134112776
2692507,0.3014110928887933,-0.06411739941571183,0.007200412746998677,3.6302124181152053,2.2785632512533827,-0.4193788048721478
2692529,0.30817808851980166,-0.06557253765480679,0.00728438573681336,3.2472311841016737,2.28258013203403,0.3613875105795532
2692551,0.31192516747460014,-0.06884955929077557,0.01222875474312395,3.1953792979577273,2.2072491078468386,1.7596930348870516
2692573,0.3106599476318731,-0.06885813705879705,0.01970148915584903,2.5144487202224095,2.062884575351161,2.8323833860811543
2692595,0.307062308257125,-0.05733971006217307,0.023563453505431202,1.0421288462108724,2.0685852235560933,3.0052300386562303
2692617,0.3058890268095227,-0.03621356118853651,0.02027576564955184,-0.2129109210156141,2.3439291254734003,2.274969588511271
2692639,0.3091684103364238,-0.019905723928322138,0.012144729372720146,-0.11873338114732254,2.6903964816460473,1.0312461898925156
2692661,0.31451890645462965,-0.021952549766660064,0.004356755924525944,1.2877109052418523,2.794855234255032,-0.18559118000410224
2692683,0.31822630770478977,-0.04111539878759335,9.251492493480109e-05,2.739967730358873,2.5988304153388313,-0.9088161261234418
2692705,0.31897433433439104,-0.06280032543409572,-0.001042134235496663,2.961053883311047,2.329942754670691,-0.9802404764770075
2692727,0.3179866240411346,-0.07308236037900162,-0.0010567018834278226,1.826217394849412,2.1574056262001085,-0.6535963419462761
2692749,0.3165431729862866,-0.06935735058357893,-0.0013277241684583499,0.33078792866365636,1.9494330903439598,-0.3983936712053892
2692771,0.3147198423148077,-0.05800764301767517,-0.002077722923726331,-0.47210284359382754,1.4565668089661437,-0.5320621637556414
2692793,0.31236098362887965,-0.04508894327676384,-0.00303035156333352,-0.4599147599117874,0.6680508863257016,-1.0024481572210755
