timestamp,ax,ay,az,gx,gy,gz
2803145,0.003463468789330555,-0.014796223901046814,-0.007926924179699939,-1.4435864390697026,-1.8776710920171744,-0.4607154634658515
2803167,0.0021629899829770944,-0.0016092411451844794,-0.005875617579627049,-1.2331503594106157,-1.7582456446416674,-0.3224694406465684
2803189,0.001085131280525692,0.006711209130560385,-0.004569616599320272,-0.8044021151098295,-1.5633262857948376,-0.1342658596961751
2803211,4.523047929973262e-05,0.007653718979029186,-0.002426289794824229,-0.11694927543293684,-1.3052505767070877,0.04030584883497123
2803233,-0.0015811740825086439,0.0020863610720151084,0.0027170959879195497,0.6186969808383594,-1.0023646031107036,0.09352165660549414
2803255,-0.00410273297296221,-0.005776226117606621,0.009724714254380071,1.0502265645323074,-0.5347135293805647,0.0377498309285968
2803277,-0.006439765704027507,-0.009783608217035557,0.01364437968396192,0.9684566143342719,0.2992047340911694,0.01991452711948693
2803299,-0.006040842897480438,-0.005685390723400723,0.0100110477342799,0.5655381499093413,1.511717169673391,0.13770638961495194
2803321,-0.0004106842365549304,0.004584973880748846,-0.0007991342173376208,0.3513574756226793,2.7458356726359323,0.2868320335130389
2803343,0.010800599028649433,0.01332853155367664,-0.01411228335355795,0.6969609985062121,3.4320506213102644,0.24781920192849557
2803365,0.02479128696384679,0.0135462113320474,-0.025211847733744998,1.4529640675889863,3.1631204893037865,-0.07296745287313966
2803387,0.03639558494103975,0.005183925064264708,-0.03192566767667206,2.0928290601058905,1.951539704876993,-0.5291069669270576
2803409,0.04037673596901498,-0.005594468876999263,-0.03353571145070688,2.2247005841710648,0.20007465300350474,-0.880977272031941
2803431,0.03445910917618558,-0.012494668897085632,-0.02952185079962905,1.8825802699698482,-1.4970955804359891,-1.0243103769343624
2803453,0.021531849515699433,-0.013028471928063523,-0.0208556173251661,1.3487213496044956,-2.5717800231409376,-1.036681714449237
2803475,0.008777588526279755,-0.007274865401296881,-0.011312130273345732,0.8633285503654515,-2.7265175441633174,-1.031802409348346
2803497,0.0029781828255845116,0.004006749283305432,-0.005339248898447743,0.5911035623776195,-2.175818247773215,-1.0472703078520496
2803519,0.00491770154165822,0.01797832366725253,-0.0037204121364157244,0.7224020781067673,-1.5953606739850903,-1.0863401232372114
2803541,0.008145210538881863,0.028033057416955047,-0.0014712374578376862,1.3855326998763025,-1.537751384691206,-1.1845738576418678
2803563,0.005013505294724379,0.027008323698380216,0.0096529491832016,2.3967551179997075,-1.6852251837093926,-1.374874134179571
2803585,-0.003682320454189516,0.014272443716401585,0.035628513731689286,3.2196503607009874,-0.8483712107440881,-1.6405135256469436
2803607,-0.005056492420113353,-0.0012161081975988748,0.07552153044029104,3.337980774423941,1.8344191220712212,-1.9820949338749771
2803629,0.016067567548185557,-0.008025181202966757,0.12152853285029867,2.731649230829821,5.404478108583028,-2.4858804306308153
2803651,0.05933999684013253,-0.004531193363057414,0.16409497543012502,1.8964376266776712,7.0517577646286,-3.156754568778734
2803673,0.10144323410254685,-0.0021661871846040117,0.19717884711306619,1.2747707217779047,4.268809055651683,-3.5730293862449454
2803695,0.11207797806151941,-0.012579171853096661,0.21812663265755222,0.7146631416681429,-2.435293148786825,-2.8335464366662984
2803717,0.08145805138541926,-0.03136849524952245,0.22371609247467916,-0.2997803328357454,-9.074646853537544,-0.18690290548583882
2803739,0.030585810103025756,-0.03883255293472818,0.20963081168130843,-1.7631382021051079,-10.971735916161068,3.9766532711072675
2803761,-0.00791318481987722,-0.020694931551392792,0.17588452607842725,-2.615151343606872,-6.402663795485339,7.7510326663295075
2803783,-0.017835162669676576,0.012173641797242295,0.1316148191341093,-1.3750917662089082,2.3839084738932765,8.661756848634125
2803805,-0.007355316297430552,0.02869023377349658,0.09183724485718538,2.366179316411308,11.510994629810325,5.4099292996903845
2803827,0.00737246029952924,0.007129158595848124,0.06722276742500277,6.954110266499483,18.475397798762806,-1.0720758363071032
2803849,0.021021310878883804,-0.03910793678176692,0.05606288287256321,9.503457217412077,22.943548140152874,-8.25844397738098
2803871,0.039234678002739165,-0.06962653970844118,0.04716187169734047,8.283295028859825,25.36366911508509,-13.893745887157792
2803893,0.06341068678880732,-0.05460052806205509,0.032055753643353495,4.413465661650449,25.71943877760661,-17.630563869202494
2803915,0.08287518417458256,-0.0024032412894357986,0.013340822258895471,0.9204302863796772,24.04618021694067,-21.157808253791707
2803937,0.08719257228793162,0.05129112588606772,-0.0010308794754805555,0.1117603177680555,21.71645559975909,-26.493471355023583
2803959,0.08241388557534866,0.07626364736830947,-0.009167778224455912,2.177387815186995,21.165295692740052,-33.463043810551014
2803981,0.08644275263927197,0.06523525316551122,-0.015531342434945862,6.144353453818373,23.563071607998843,-38.54362108465403
2804003,0.10616044797112825,0.025849720724965802,-0.020182513763432986,11.243560936378483,27.010697271311617,-36.90143819253052
2804025,0.12682786453431538,-0.031874738314652214,-0.01511511050090154,16.667386272325494,28.004678825769226,-26.768360288917677
2804047,0.13110791694147067,-0.09607922003585646,0.00381733712158232,20.535728111802037,25.145978346401098,-12.12007198297156
2804069,0.123964269448218,-0.14913345583356286,0.025174035303757034,20.403178538766433,20.778150961433415,-0.013061657409766392
2804091,0.1278810814987925,-0.17272236219193823,0.028985259961946314,15.505462119422056,18.309323698689898,5.584044960491035
2804113,0.15276918756181587,-0.15906725611117029,0.006527167069905079,8.126464129073897,18.419203877366208,6.688538035954193
2804135,0.18215313710089492,-0.11468311218062266,-0.03188232579104342,2.0682970879063918,18.825305879688404,7.293022925432871
2804157,0.19451881141934158,-0.05304708456998544,-0.07134408719096684,-0.3835971798033941,17.512756048229345,7.528323410324956
2804179,0.18860438375419,0.012873946063230647,-0.1095754317580621,0.21388009145150985,15.036660036865511,3.6774204228248983
2804201,0.1803844720509862,0.06827267491231336,-0.15277843291515064,2.0725418477370914,13.403181639448672,-5.985308882078485
2804223,0.1848174191012145,0.09031621785397105,-0.19523674077366598,4.642045129956315,13.581148536158668,-17.162397487437143
2804245,0.2104772505255925,0.05517526344056026,-0.21258611065827737,9.098398618371622,14.518370078446697,-22.386354410797864
2804267,0.26084507065487494,-0.0384840271809006,-0.18419283248890417,16.45394231703062,14.00884248273141,-17.33791874640086
2804289,0.3229934431789457,-0.15404131327438364,-0.12167990451374178,25.45386012539145,10.341222062393353,-4.034247738207343
2804333,0.3604229988147348,-0.23485615667873655,-0.06721674998370161,32.47649762306546,3.795001447000979,11.091673700490992
2804355,0.3382455567810404,-0.2445566869250749,-0.05731841766769126,33.784224642317724,-3.2630361484114543,21.24959812518436
2804377,0.2607087365810509,-0.19193056284386903,-0.0888481557123247,28.43566490943944,-8.311911041684441,22.402488273975166
2804399,0.17261088502113206,-0.12025297580364025,-0.1231010494891928,19.264471825511908,-10.764886943053753,14.581061807175825
2804421,0.11907180510038137,-0.07501131002343343,-0.12215647830397497,10.753077148379909,-11.775729229849393,1.6038066935578086
2804443,0.10880446821501599,-0.07573965334278356,-0.0800658346087775,5.691182966644615,-12.300066850440896,-10.627160988827155
2804465,0.11808782725545701,-0.10765574829914781,-0.02300360838905888,3.82649505348202,-11.990615776838638,-16.891652403959295
2804487,0.12441071830147456,-0.13570010336930233,0.014505995927700844,3.4697198149436668,-10.004239450812303,-15.378507148053695
2804509,0.12871631532398362,-0.1325940129262975,0.013902306581470245,3.838720656562712,-6.470152855553613,-8.578731570883185
2804531,0.14427378793490409,-0.10167964982252169,-0.018205217008219827,5.4784666762055405,-2.8647860330293637,-1.303037113317651
2804553,0.17238739767983818,-0.0742336274017455,-0.05749417612258808,8.627182216127581,-0.8570937240029145,2.752358274293318
2804575,0.19718639034034802,-0.08092960745170676,-0.07872170901477499,11.815095062137773,-0.8689933307424166,2.9561914232778035
2804597,0.2029018852112257,-0.12328611157929538,-0.07081084915803262,12.572965160179058,-1.8668600752214364,0.9215616257252369
2804619,0.19001031401840468,-0.172546896104019,-0.041033501001812606,9.601516839187852,-2.4806880305858163,-1.5666430767483233
2804641,0.17288120236658344,-0.19622343781523172,-0.006977586334094222,4.112097483464881,-2.177925553319833,-3.719249224365586
2804663,0.16506797848465746,-0.18585933555471953,0.016410388810139898,-1.0314331789835731,-1.3877288625868818,-5.44140281003429
2804685,0.1689055744179671,-0.1604040931127404,0.02496369885222618,-3.5071696685101266,-0.7264737315048037,-6.520592918861669
2804707,0.1773648431725786,-0.14476285891732693,0.023906354499605487,-3.0576124320975833,-0.3296989158981178,-6.420404235061124
2804729,0.18286294047965898,-0.1463596901763398,0.02023984857164888,-1.2033839991426516,0.051875459454920836,-4.897769301750761
2804751,0.18324400131377083,-0.15188932691623333,0.016691961842932677,0.29040596404640895,0.5162398112199603,-2.62232272485904
2804773,0.18072336192330793,-0.14472904507843737,0.012159467581062402,0.7707257417745658,0.8028504588969642,-0.8638095690326045
2804795,0.17768334265135635,-0.12365548913828707,0.0062447295221852534,0.8825084050325054,0.6609089036047444,-0.4135656434168195
2804817,0.17520911631153374,-0.10436604107290959,0.0015008955556239704,1.6517705473633302,0.27007083513286895,-0.9251933869586295
2804839,0.1747990094417238,-0.10387767026745741,0.0006912305892621017,3.365791324972775,0.11840890485288563,-1.4159801745855003
2804861,0.17866039723412852,-0.12442602830884249,0.002976363386102258,5.201950170621294,0.4391490863127024,-1.3133114804061459
2804883,0.18664163473459627,-0.1520089101713073,0.004277604333951744,5.849992220177513,0.9007783087239923,-0.8876604189909472
2804905,0.1941516248383531,-0.1688332367501904,0.0017388960106194686,4.546561922539361,0.959415775532635,-0.7477594265715446
2804927,0.19537771628127776,-0.1664329336080649,-0.002964935999253821,1.681609727674972,0.45035165386743203,-1.1357317775469808
2804949,0.18892086067550373,-0.14856474843404047,-0.0054506394906388995,-1.446849726242368,-0.301122688911991,-1.811447203208378
2804971,0.1790493985156934,-0.1248561133677469,-0.0034479904628420105,-3.4700842071436955,-0.929400148659016,-2.475014383477432
2804993,0.1712426244578197,-0.10408599764993831,0.0010301735582867373,-3.709437571564816,-1.4022169962269493,-3.0736725918533283
2805015,0.16783768041305544,-0.09253233089384447,0.004403251198797296,-2.3733034318765287,-1.8534174816319435,-3.651967830043093
2805037,0.1683259924595635,-0.09435557393949812,0.005419740238626094,-0.24067631904043568,-2.202425050615798,-4.089808654607726
2805059,0.17174801027464068,-0.1096271629276034,0.005702217144424114,1.801020095934949,-2.1763418098146996,-4.174226113215518
2805081,0.17670710669916498,-0.1319989693041512,0.007129545837192881,3.0929739518245865,-1.7401335747866253,-3.907560429302833
2805103,0.1800305554985532,-0.15107975247668665,0.00976945256174407,3.355059821714295,-1.3137722940086027,-3.5994199797252557
2805125,0.17831625491517383,-0.15949972447525604,0.012459664944436734,2.684985200281402,-1.3986440277151349,-3.5839935483276264
2805147,0.17184514378107613,-0.15866433827330953,0.014592208108654317,1.4652592347471443,-2.0150438015158088,-3.8816509764336247
