timestamp,ax,ay,az,gx,gy,gz
2739961,0.007591115955351011,0.02163147374671373,-0.01263079645398404,0.29285502214073217,2.1510331881498224,0.43324808317510544
2739983,0.012132835496533542,0.014716225973476821,-0.01710576637431027,0.7388682994596802,1.1556170863723318,-0.2524534052950045
2740005,0.01117662665224807,0.0071375612454400396,-0.01660893688734082,1.0249268288266824,0.15411209399905956,-0.6215885363209012
2740027,0.00380738616847951,-0.0010390304886409934,-0.010118089374030238,1.0506627080218456,-0.6735948945673503,-0.5887711856389292
2740049,-0.005345136634173133,-0.008754553736171851,-0.0006679586380007387,0.8003300870071254,-1.0519164847133737,-0.30963019618283705
2740071,-0.010088981827055442,-0.014112577267245484,0.007793650647925079,0.32070720941365277,-0.9022223639946022,0.00011023665511499664
2740093,-0.008384562142952266,-0.015020006027770153,0.01312624705621703,-0.300852131494792,-0.4800009999141627,0.22651947186649132
2740115,-0.00407868615853977,-0.010520336916419874,0.015069422652421734,-0.9207467233151546,-0.16225994189802445,0.3693665582958306
2740137,-0.0026129661214829266,-0.002207802723531757,0.014019259273527408,-1.3401324855205579,-0.11256276975196858,0.4604577618140873
2740159,-0.005390183873822712,0.0059605422614761785,0.01070456178875887,-1.4000133896090758,-0.1910673959037419,0.509706897238337
2740181,-0.00892364436129955,0.010166464437244237,0.0067162948741688105,-1.11362473978026,-0.17315595438490444,0.5184486743555627
2740203,-0.009136181668863246,0.009520085126400771,0.004158722530537448,-0.6735158441892126,-0.0051279049995690655,0.5101463744888098
2740225,-0.005711926921199099,0.006274841440352921,0.0036339619391937182,-0.29859367219770383,0.1576566302175179,0.5256876726219587
2740247,-0.0023685896120519663,0.003442158442938474,0.0022062452903524473,-0.09979026327920566,0.11401095412259887,0.5831694302188544
2740269,-0.0035963953446863186,0.0026986296110049317,-0.005511859404000172,-0.10953166490762992,-0.21887796719026265,0.6373987827681389
2740291,-0.010911817361236895,0.004240973433356782,-0.02195098558277556,-0.36390854929091143,-0.7819910735704096,0.5727847281040434
2740313,-0.020961172343341935,0.0068879744652795,-0.04096665678616152,-0.8531944877837092,-1.4555596662473158,0.25938695831470804
2740335,-0.026625819855407,0.007295672841212839,-0.04915183881826743,-1.413862027007345,-2.121822142982378,-0.31002626031957975
2740357,-0.021295008237499777,0.0011712288727480714,-0.0356844729269614,-1.8106816042963478,-2.6596441671142705,-0.8831838441039979
2740379,-0.004199702026805314,-0.011569047004350116,-0.0020960189778121614,-1.997645111086779,-2.9274719862470793,-1.0313069816176141
2740401,0.017620393134096746,-0.023228639274962316,0.03859916587115182,-2.1986200877806072,-2.7916190570835218,-0.5525846900467267
2740423,0.033643277930238566,-0.0235640122588981,0.07300632629867974,-2.6121958412972495,-2.182745394992363,0.15398934836890563
2740445,0.037738575567060596,-0.009998975974439444,0.09709451194825225,-3.078435670387334,-1.133082614599656,0.2924481443360367
2740467,0.03257474958417527,0.0099686215821762,0.11540946330439031,-3.155088922674419,0.22791569277311363,-0.5831819220431912
2740489,0.026159756146081913,0.027737902834321423,0.13290034790964814,-2.5130921776927515,1.7377851571656158,-2.086996706806459
2740511,0.023726762054555626,0.04139543495689511,0.14953501371760206,-1.1456271942044876,3.349874768856134,-3.408451864371554
2740533,0.022730029097378295,0.05149737995684634,0.16253981382564545,0.8007628371472526,5.311875806491111,-4.145049751412973
2740555,0.015545361150793626,0.05210183177450765,0.1712993033220694,3.211961373585937,8.191264329158528,-4.571129119957536
2740577,-0.002403255240206223,0.03142149233863769,0.17784173842730513,5.867971504881927,12.5907287601293,-5.138982528372993
2740599,-0.02570616048086774,-0.01653478598272445,0.18292489839310094,8.137611425597962,18.634752395182034,-5.903040254180836
2740621,-0.03959673257202543,-0.07988134289454656,0.18326522543987395,8.940702086834971,25.563585133354984,-6.370715610573407
2740643,-0.029612485680032028,-0.12599552287578128,0.17263897703975903,7.282357178564265,31.8432194265682,-5.72337227398815
2740665,0.006333175993845639,-0.11454337558872654,0.14549409560521073,3.3048742133972326,35.95466410868654,-3.416955550649796
2740687,0.05454977952742273,-0.02697695017245686,0.10212725908873724,-0.8776537953356085,37.42330977802814,-0.15910431344916232
2740709,0.09565659915290035,0.10646152776296156,0.053106650464208816,-1.8256552792180578,37.152090047089835,1.649593233389718
2740731,0.11951576274185088,0.21382132564099765,0.01630178962181273,2.777649045023791,36.54091569136483,-0.6352519206968855
2740753,0.1300814764675076,0.22875522238851,0.00429649823186447,11.755547667483942,36.14178617511612,-7.021767908326944
2740775,0.1360761188037338,0.1401198999932446,0.013212774691453691,20.73426186616005,35.30942670570243,-13.590994258146145
2740797,0.14054903387750148,-0.0016422099693264407,0.026184660373609687,25.242769047835264,33.301665254055564,-15.169242894471692
2740819,0.14253581349205327,-0.12455438927417292,0.028175055283485184,23.690329895936635,30.468097770620492,-9.9895248599171
2740841,0.14487685889560048,-0.18164779322388483,0.015592407459221682,17.56464078710339,27.925714633361366,-1.5021841780116643
2740863,0.1522870902139241,-0.1680049231314522,-0.006766992655940433,9.551938324933184,26.188846506506906,4.705341011838627
2740885,0.16091533278521858,-0.11014549049368953,-0.03238763362416358,2.163424245276578,24.872931377984333,5.65061608651621
2740907,0.1588012643190686,-0.04903364262768245,-0.05465209210693975,-2.477860141181921,24.055515540451594,2.7226888184669096
2740929,0.14305982981356932,-0.02328004361594757,-0.06722680774272259,-3.2327690362741563,25.057257885158485,-0.6418735797511397
2740951,0.13120603542190004,-0.048174649294596396,-0.06881762151869836,-1.220785296317449,28.786780430507864,-2.511791030024541
2740973,0.14637118526948548,-0.1020044348792693,-0.06701240218830573,0.3228476600979082,33.44599206256481,-3.791073833985666
2740995,0.19099762758760266,-0.1412868524941758,-0.0724533031787812,-1.3084921077180942,35.0943664104124,-6.454259334405573
2741017,0.241743208209088,-0.1394743991089485,-0.08697446099764328,-5.633152716539712,31.28373913773867,-10.769390413461089
2741039,0.2723916558326915,-0.10951219270587217,-0.10017951442708709,-9.542426381415549,23.732233315173126,-14.366342609208587
2741061,0.2767187382676427,-0.08367465933778923,-0.10018340155995108,-10.571246427065697,16.712410658457777,-14.125375192873255
2741083,0.2665664186139586,-0.07573083441798817,-0.08600139947999148,-9.09189461974489,12.949371018326783,-9.155424658925211
2741105,0.25433398187246303,-0.0711834838595151,-0.0672102092886873,-7.27276926433406,11.713990348465183,-2.0748778869518976
2741127,0.2447409200124322,-0.05265112176759694,-0.0532342611425534,-6.615411747121835,10.767125870188583,2.7600417251239047
2741149,0.24026829484924647,-0.024260479096475343,-0.045624571108574784,-6.909116203242442,9.178267424702332,2.7442633169552653
2741171,0.24438625331686026,-0.005113122394896975,-0.04011068529171687,-7.085787324552991,7.781140293839716,-0.8612533965148333
2741193,0.25635915961926603,-0.002123269991781373,-0.03418177523128907,-6.34139373331969,7.596873813150106,-4.224448130375109
2741215,0.26941706133420534,0.0020950592631543757,-0.03196302181884918,-4.146810040042784,8.626501932579762,-4.266480613981242
2741237,0.2782955011696075,0.027099282894351408,-0.040709178507401744,0.3879510037184407,9.935681799691487,-0.5685392215729239
2741259,0.28475488175229025,0.06313490326300045,-0.06144788701717068,8.0973923780429,10.19385818504204,5.448937539298945
2741281,0.2924503482574089,0.07431850192999517,-0.0847169299013043,17.95431145373768,8.222993136819023,11.964446711713672
2741303,0.2995453968615136,0.03849385454437632,-0.0978301705062269,26.28007380077689,3.7754583459213125,16.988435507244805
2741325,0.2995203670418247,-0.02681879093121633,-0.0952058591519185,29.056233566443154,-1.9335195531168399,18.460766752928347
2741347,0.2880379545716635,-0.0853202187963981,-0.08002042013692534,25.32717489480457,-6.761241861812182,15.504502443017259
2741369,0.2678560290296056,-0.11822358233105225,-0.05845102767650521,17.7447370210013,-8.969984612577834,9.576428250522932
2741391,0.24781859651380883,-0.13075044321498688,-0.03561636147495355,9.848915177931188,-8.232343250869635,3.679907497740418
2741413,0.2368232598931866,-0.13207000693604312,-0.015735556543724948,3.500879772278274,-5.638189469527328,0.1889560922916274
2741435,0.23733959278281164,-0.12228592771956419,-0.0023903047893308383,-1.1694571669839593,-2.8685628643047325,-0.5547769562133714
2741457,0.24422416762657187,-0.09874043021352268,0.002979954371944,-4.386705064589529,-1.1617660505972072,0.19049054692293577
2741479,0.24993868974408176,-0.06628133565773338,0.00223504456757989,-6.0089334171488735,-0.7520263645248375,0.9749864111289446
2741501,0.2508138106301796,-0.03747034796287529,-0.0003611447325129263,-5.897343629573657,-1.0673519112474619,1.1304197341938838
2741523,0.2485934338042483,-0.024375087138161573,-0.0004924903154995995,-4.443686658475269,-1.3556431562385323,0.7766537111947472
2741545,0.24718090737335222,-0.030523802864484497,0.003885182660016206,-2.5437866229777004,-1.1666758152019354,0.32553476059122793
2741567,0.24890808418119098,-0.04863193310021886,0.011472215334019386,-1.099831090186179,-0.4475472562082677,0.10312875151027216
2741589,0.2535021633882173,-0.06516986092127229,0.01849080214934242,-0.4836127168415213,0.5720719839232362,0.236606285558764
2741611,0.2592948283361994,-0.06929654417427503,0.021190162763740552,-0.3348523304548978,1.4965796786509227,0.6192709626901501
2741633,0.26460345343222336,-0.06054652436380572,0.018534437201768835,0.11903581011811529,1.9059924892559388,0.888317308845369
2741655,0.2682126707306547,-0.04918843179947751,0.013231578757041151,1.3848740888488438,1.5958728098892803,0.5736905897340094
2741677,0.2692551554187746,-0.04803742714002802,0.010060752992577582,3.2185820191062415,0.7741407987394743,-0.5027846243231996
2741699,0.2671517766484774,-0.06187991200060335,0.012218271093144818,4.8138773109455135,-0.02221281152913316,-1.8646427686260356
2741721,0.2620805053680613,-0.08338815590629715,0.018359919919274253,5.505797343094872,-0.2810614179192411,-2.540068496870301
2741743,0.2557645982474979,-0.09915127095335027,0.023294218197441863,5.313509153550106,0.13588663216875027,-1.8273994926916233
2741765,0.25117282686367814,-0.10072809072646742,0.022430763252794,4.845858147046327,0.895887028391168,-0.02176806976568456
2741787,0.25024223380756583,-0.09116282403385888,0.016066579249945454,4.719736974294125,1.4156452506815396,1.708551567132529
2741809,0.2517943157161181,-0.0814484552233116,0.008961434656080977,5.036463333199841,1.2900125719393345,2.3165914007736177
2741831,0.2527752189307274,-0.08062891898095233,0.005266331479987452,5.338985709381293,0.6230099958043515,1.7971754558866293
2741853,0.2518407082589763,-0.08869883667442328,0.0042768989875958665,5.028539380300181,-0.06375621283624652,1.0856743264910362
2741875,0.25078898669404603,-0.09800238131910993,0.001955620542702867,3.867822383908419,-0.3054209699464608,1.041444743133061
2741897,0.2521637912686945,-0.10067213030874081,-0.00357893169348993,2.1862506494680964,-0.10551647705395202,1.5777765247229016
2741919,0.25641350012184216,-0.09469489263545033,-0.009337178704362847,0.6452983175350676,0.10699777756017884,1.7986498134361697
2741941,0.26202201210373627,-0.08342407373947763,-0.010921836814257242,-0.2687136396836571,-0.08387029069088385,0.9337597146631725
2741963,0.26769751877775394,-0.07062907286952647,-0.007976381022120147,-0.6318939240153411,-0.6760468395711043,-0.8811625326558098
