timestamp,ax,ay,az,gx,gy,gz
2789131,0.0008762421347901121,-0.009639515546420658,-0.006523295018111237,-0.20736164113091288,-0.247552854533208,-0.15247499347547827
2789153,-0.003012617304765824,-0.0003911696323852205,-0.003506172005311728,-0.1772305189235942,-0.22084649951886245,-0.03907598424060353
2789175,-0.004344903071715537,0.0038156011063488846,-0.0018538444186507208,-0.0772826216937575,-0.12129148761408874,0.06508479106399334
2789197,-0.0017697299424691408,0.0028025606608610165,-0.002384988508187457,0.0004862955064346775,0.06868849947292398,0.18513884499154676
2789219,0.00358444062004536,0.0010926635129842107,-0.004446212796315081,-0.07779437973543757,0.2619908893239029,0.33264129463678754
2789241,0.0081215526897046,0.0025630012633212147,-0.005596158981896961,-0.24684915219439535,0.30594541934496366,0.42699669999500117
2789263,0.008111451436230621,0.005654493178583093,-0.003281166305701585,-0.2541841869165421,0.13542193661570845,0.33162516817146853
2789285,0.0028036444568837445,0.005035761730224715,0.0026056439110431835,0.03641471634578645,-0.08837687176444046,0.028683165565992534
2789307,-0.00456773137523959,-0.0016503436616235189,0.009248932578634274,0.4387080937711183,-0.05030920575208461,-0.28448052857711603
2789329,-0.00899400213695959,-0.009750588088959834,0.013307750377798563,0.6163049379320309,0.4315827551926396,-0.3730291069058583
2789351,-0.007312751232616845,-0.01125006769986212,0.013502557405491954,0.4339265955292096,1.185589426148157,-0.2538820312240726
2789373,-0.0004064303438296526,-0.0026500877449905998,0.011059839880081095,0.10087388328194921,1.8049409959669187,-0.22204363709169272
2789395,0.007272415392299102,0.010397136226103703,0.008848525527437706,-0.011257809635653444,2.020989172806288,-0.5389147968126652
2789417,0.010143693077010556,0.016062049885528087,0.01078367388984348,0.301634992527887,1.978104458639942,-1.1378489446727416
2789439,0.004853168875836094,0.005513032420408944,0.02105611147855286,0.8405583891683951,2.18632069434611,-1.6757548194316254
2789461,-0.006641524892638045,-0.01812218228375971,0.042505973556190034,1.045412960259829,3.218189219444955,-1.8586684494963577
2789483,-0.016739891461874584,-0.03894710704425495,0.07536669632883768,0.35703632980349104,5.364742942009008,-1.7232475452762677
2789505,-0.016808596152462957,-0.038088194102948364,0.1173359245183915,-1.3179206988456325,8.498737003913313,-1.6376845271423408
2789527,-0.004373932214925691,-0.007072222127727034,0.16365803525417147,-3.398153538534188,12.31723124820105,-2.0005523287574225
2789549,0.013996974769417804,0.04540533304686835,0.20647910799984656,-4.832246828841147,16.792125257930312,-2.8597387455583965
2789571,0.02840973528321998,0.0972695206432936,0.2356801047798301,-4.580060128632998,22.280888636785576,-3.8395135973533434
2789593,0.03541562099971589,0.12425717823174073,0.24287829281985818,-2.1514768069886894,28.989902593883592,-4.549031596214052
2789615,0.0421030999502125,0.1126636741722,0.2261141724815579,2.025079366618042,36.314301809190226,-5.0732970624082725
2789637,0.059698822912438276,0.06674806983606367,0.19126079103376886,6.655778577617107,42.909571065513525,-5.943329911068119
2789659,0.09230754017716518,0.005859610154417865,0.1492077421799927,10.11366279749719,47.55105719337145,-7.601468513697214
2789681,0.13195257082165068,-0.04595424218735729,0.11070552184002361,11.173642259142179,49.90904470779803,-10.028788022831957
2789703,0.16546458973858294,-0.06998023755933577,0.08150157741057036,9.604183405009573,50.54494202536578,-12.899529903586693
2789725,0.186607023265163,-0.05942196007593847,0.060707611411701196,6.422237566628444,50.351546771027564,-15.800206375250959
2789747,0.20081876680471594,-0.024354447535692256,0.04399875274664859,3.633273190943526,50.047913908848344,-17.972566715165346
2789769,0.21747231319780214,0.008347519505041097,0.02903290477469655,3.2681735088371875,49.95001450824622,-17.964016139377947
2789791,0.23822193093116575,0.008415670157123974,0.017640231680167786,5.954454305851132,49.905462935091805,-14.220078058659524
2789813,0.2548536204164247,-0.033884120404482077,0.012376429627787448,10.044298551593462,49.417031034269584,-6.721726421453192
2789835,0.2597908695759787,-0.09445382667430957,0.011307070617875342,12.486013752698488,48.083917605407294,2.0129992069251905
2789857,0.2577046999819238,-0.13136572539637179,0.007163361510150494,11.28252905654733,46.12524707671492,8.296735138433089
2789879,0.2643227351564269,-0.11927648094465908,-0.0075988872763351435,7.453136962852683,44.3501045517365,10.174818184844282
2789901,0.29219033806102906,-0.06865833065913142,-0.03455430192901489,4.363464759341504,43.327829039801124,8.849097259367383
2789923,0.33782261805647656,-0.012422949902849421,-0.0673832680633958,4.861471943385305,42.56883887123966,7.03148094095745
2789945,0.3834647116951741,0.02134496730469465,-0.09512753359262799,9.039743975729458,40.8461297983951,6.1220154719834134
2789967,0.41158087885191563,0.022987821960266913,-0.10805899441576715,14.624593151758475,37.55202264560554,5.209520437603275
2789989,0.41868570056568205,-0.0009236629216654472,-0.10402207572419567,19.083006137750033,33.56698569819513,2.5355514184636414
2790011,0.41691605228720896,-0.0311190465388918,-0.0923224933185846,21.294650566703577,30.456954844833923,-2.345060847845273
2790033,0.42195331557982774,-0.04178571883563527,-0.08927226518390029,21.99815162998997,28.675919733689902,-7.454465624211632
2790055,0.4372425101035599,-0.022063552990341056,-0.10358679914069215,23.362910102725284,26.682623229563088,-9.01828551415347
2790077,0.44984658105161685,0.001728441959543506,-0.1237842921977583,27.56744117992117,22.087382719593297,-3.9253032096706053
2790099,0.44380418912654346,-0.018615967256903922,-0.12510786196859788,34.5618617698922,13.903369003541854,7.147091107040653
2790121,0.41703604788604587,-0.10234446851690059,-0.0934291198780116,41.10214427063435,3.75832601613555,18.99884320632633
2790143,0.38262813929203077,-0.21320149604164865,-0.03970499870069529,42.96972658214828,-5.092373191611561,25.464447803239263
2790165,0.35530338824337804,-0.29355355138675604,0.011819067412130171,38.59972959371805,-9.943129633516508,24.33788411517922
2790187,0.34094814710453014,-0.31684007709687007,0.04578840327346746,30.241117055932357,-10.12661950058926,18.6103569409348
2790209,0.33801810962821,-0.29917532047843987,0.06318069192906137,21.705820326487014,-7.001081117163162,13.186412542201923
2790231,0.3434590476954471,-0.2694180282455653,0.07128139808087527,15.52595761991708,-2.9263218309501307,10.965869659146978
2790253,0.3549721917752802,-0.24095620299320936,0.0726334284776298,12.186510894749498,-0.0953437642271763,11.587183362070638
2790275,0.3691401825205992,-0.21326978366093838,0.06523258616713562,11.239476089099158,0.21036607999296938,12.713513984779915
2790297,0.37945564893133094,-0.19068593451794935,0.05032628362102949,12.312637768292115,-2.0980721374164566,12.154155096087493
2790319,0.378626243884025,-0.18792768209149177,0.03566335715032717,14.845924914949165,-5.9177779711384435,9.450608162501727
2790341,0.3648125629359453,-0.21368990727663942,0.029119128885735382,17.41952949418427,-9.37770105299123,6.058079280545795
2790363,0.3450667967789064,-0.2552694151683606,0.030739825584113964,18.18200009755261,-10.865053425021891,3.9931714796755924
2790385,0.33092766054396683,-0.2870018555954784,0.033342593195946825,16.297872369086836,-10.090023092048087,4.081536361163228
2790407,0.32994039221376864,-0.2941260210812676,0.03079224250683538,12.691207180607666,-8.221987714654631,5.380609855210818
2790429,0.3406279496122544,-0.284185372930461,0.02420262890983037,9.01265024605986,-6.932017803666156,6.127742837076078
2790451,0.3541581630858269,-0.27411565593460496,0.01992767425781717,5.940726075875804,-7.163722382834839,5.117013891359193
2790473,0.36086842258017277,-0.270009137301015,0.02284344409914906,2.8099481671711204,-8.528130223882686,2.361788965632833
2790495,0.3569440540540171,-0.2631203720339154,0.03238821825423802,-1.0302519718524845,-9.681927867163699,-1.1376339404651838
2790517,0.34612512953376673,-0.24444932824022264,0.04422928106604255,-4.843705645420579,-9.42238925126203,-4.068033278626104
2790539,0.3353740373250217,-0.2182565593885522,0.05418202816983085,-6.8656067205971025,-7.655126929360618,-5.503435236131021
2790561,0.32905062134834484,-0.1985588467532119,0.06030748014756626,-6.0162853559812906,-5.384140193676257,-5.349600723022509
2790583,0.3266429171414751,-0.19508366514896266,0.06280698818524139,-3.0022717270738886,-3.777869602316712,-4.2831972120535715
2790605,0.32465115946637885,-0.205976718911164,0.06331301748384686,0.30917050241058686,-3.263850446921647,-3.20872877704254
2790627,0.3200735129519862,-0.2225776478014277,0.06394269858001919,2.369611926846657,-3.4089603147494443,-2.6606771608729116
2790649,0.31323003646387265,-0.2372388420057071,0.06569898814120549,2.798896661583687,-3.4502007229558993,-2.575903911271322
2790671,0.3082049098646922,-0.24623430244944453,0.06720484683778666,2.1600762959261455,-2.901772685076932,-2.4920592136410114
2790693,0.30963318883183255,-0.24876248343088164,0.0657029550119526,1.2393410721358316,-1.8638990574692862,-1.9768303115567296
2790715,0.31773410965412474,-0.24591807855627731,0.06019315444407957,0.4977459240753055,-0.9151309901969572,-1.0122686600819804
2790737,0.3268813482951367,-0.24030885160612042,0.05343738155785399,-0.02953782288700451,-0.6350417066137714,-0.02124019461819436
2790759,0.33031494697273106,-0.23511654323230835,0.049957391703693524,-0.47678679489409836,-1.0853122318966515,0.5397893322718289
2790781,0.32647180609024096,-0.23258868905631,0.051692802522750984,-0.8621123729047208,-1.7420959224591206,0.6144482688452415
2790803,0.32011010318490174,-0.23301532018146798,0.056146432996158804,-1.0641170800940123,-2.0014245478795947,0.522290657022593
2790825,0.3172553609970339,-0.23469123834639014,0.0591145350800138,-1.0194974546388014,-1.7503319470313201,0.5469509442898044
2790847,0.31963256760522524,-0.23468945175895756,0.05875372950823379,-0.8436029267530827,-1.4031352427904984,0.6516635386425624
2790869,0.324001234282836,-0.23065318609226512,0.05664318375430496,-0.701577997399742,-1.407276430873543,0.6059326762386086
2790891,0.3260345962387194,-0.2234692764268093,0.055559954685259594,-0.5962632284735246,-1.7793006665568822,0.3074079295170855
2790913,0.3242319989612684,-0.2183226020193631,0.057061026526608646,-0.3703395504098347,-2.1213599122543574,-0.0667271027790296
2790935,0.3204983390543154,-0.22126783099729963,0.06087956929843651,0.0520146861688735,-2.031513826080019,-0.20067638160578627
2790957,0.3177663597528531,-0.23325596801502685,0.06543278727424749,0.49732545413980134,-1.4740913364104458,0.10061574227264079
2790979,0.3173060190837672,-0.24772729669888593,0.06835941452153356,0.670043736962565,-0.7869792846978945,0.7779135721346923
2791001,0.317980943870876,-0.25489037193514213,0.06738716378413548,0.40983712076341133,-0.3725085042268519,1.5845560132887777
2791023,0.31774685739066255,-0.24926509020979543,0.061966990727697346,-0.18245970369213282,-0.3770569512730163,2.241733496869634
2791045,0.31571225769667977,-0.23429681231914454,0.05454551870898754,-0.7841054000732205,-0.6118961225112809,2.5597493937517055
2791067,0.3127097824644415,-0.22008043799282243,0.04960273019960241,-0.9921718234544252,-0.7309605482464161,2.4924653858550663
2791089,0.3100597440498615,-0.2152362471679991,0.05037355453475488,-0.5633333633013878,-0.5040074250447535,2.124278357960424
2791111,0.30813190828493603,-0.21937949423748657,0.055893046107628096,0.35860237790033883,0.011529044232643403,1.6024868781114783
