timestamp,ax,ay,az,gx,gy,gz
2704849,-0.00646997828019981,-0.01743238367889106,0.0007211191885699638,-0.35183213616471976,-0.408736953601664,-1.136178125827951
2704871,-0.0035129241982386804,-0.005705932502287516,-0.003428869648559545,-0.8864489209236581,0.12848904968740632,-0.8973352849137617
2704893,0.0004461905658075351,0.00023934127350877586,-0.006366178109609105,-0.9232543545772933,0.43912052724117107,-0.47373328051353003
2704915,0.004682402154247393,-0.0007018655619158165,-0.006895563921666305,-0.4966259583044164,0.40830325779454,0.049811035553370395
2704937,0.007072076879688946,-0.0037598098019392236,-0.004397044367287622,-0.10030733112153714,0.10561551285960398,0.3880469419244625
2704959,0.006066125027789087,-0.0025698739211908505,0.0004047004237834505,-0.07677317125015706,-0.24523640473364028,0.3950951470942509
2704981,0.002271145476034638,0.004136882682633327,0.005289110114816072,-0.18467025087194186,-0.41040941201946685,0.25112467090150675
2705003,-0.0016567701866773824,0.0107194359253884,0.007471960469764946,0.10597706936419161,-0.2984719357166009,0.24561635472742116
2705025,-0.00269434283967983,0.010647091795831419,0.005284873928581124,0.9249013594471114,0.0084903733977207,0.4255674256209977
2705047,0.00033737687643516394,0.0036510728011991595,-0.000512690273789104,1.7690010567856098,0.3493694889862617,0.5402683368911836
2705069,0.0056894114350004785,-0.0044683058551587464,-0.007026050604761438,2.016344687548395,0.5914909152086273,0.3226020377228309
2705091,0.009955548446425572,-0.008370791963532256,-0.011182989644365149,1.5602201698862512,0.6667451344011636,-0.22764643068284826
2705113,0.01083444677000567,-0.007573056879668164,-0.011759625053701392,0.8578130990070476,0.5493582375051919,-0.8197431913017669
2705135,0.008827428755995615,-0.004728814332899952,-0.009721802968138387,0.4485554904891942,0.23139082354216414,-1.083273517931273
2705157,0.0064174025213974105,-0.0020522748836847146,-0.0068388784106216734,0.5204807504531568,-0.26678288876929235,-0.8399239037082649
2705179,0.005799279665260287,-0.0004368726192933264,-0.004056059862315269,0.8645245494624677,-0.8579963570506124,-0.24833444754714415
2705201,0.007206874006717553,-0.0005329396525941815,-0.0009145772430657565,1.1051208918235298,-1.3746404723146766,0.29933297045560775
2705223,0.009012399339307189,-0.0030848142518947563,0.003803790643277701,0.9656460550016113,-1.6305826647752169,0.4713503291238864
2705245,0.009338542501532926,-0.008016812859256525,0.010808264928264312,0.4138017548476177,-1.5289796507393583,0.24745165219288642
2705267,0.0076701605215203405,-0.013572761682747894,0.019393035377134906,-0.37958822311071,-1.1099251877926717,-0.08045359276355746
2705289,0.004899294274599109,-0.01696679369332963,0.027843612992666304,-1.2132781911648893,-0.4820075387573329,-0.15485583757570937
2705311,0.001950011192527825,-0.016906981863611836,0.0351113618334229,-1.9907840272359678,0.27957018430692554,0.15991272944716386
2705333,-0.0011469078613546117,-0.015611460975935628,0.042271519331294166,-2.724917151765322,1.15431618245899,0.6816285574738121
2705355,-0.004457323014937185,-0.016311067908858966,0.05202654333911573,-3.4971552550018727,2.1376592874247535,1.0489093989032787
2705377,-0.006682633602830032,-0.016559893189851637,0.06607523530267721,-4.4262772057475654,3.25179429488168,0.9153394782691721
2705399,-0.005057725235122665,-0.0056531709511366355,0.08241999860348886,-5.5190604164059565,4.602791067292795,0.0249789683591021
2705421,0.0030086908873421664,0.025295787495688265,0.09580480720929425,-6.38684913788248,6.337389709952729,-1.776842103263504
2705443,0.01799280498711911,0.06643886190317798,0.10243055810826043,-6.235194750510844,8.436433969460644,-4.4251461213429675
2705465,0.0373680144025119,0.0867179692810712,0.10482240083422227,-4.539744261282513,10.556814546508019,-7.4276206820325585
2705487,0.056406695871312626,0.05833090056765299,0.10994715786298313,-1.9750865101807804,12.251361105998306,-9.821518236185877
2705509,0.07102836256175245,-0.011780266141754456,0.12017734002446508,-0.4330111146586412,13.516679848751957,-10.516179128985168
2705531,0.08121639504835962,-0.07967389007721075,0.12734760323323638,-1.6794552887372258,14.993260492588119,-8.976791657282847
2705553,0.09082003354035009,-0.0994105407359217,0.11930332933440124,-5.7903949441508855,17.257028407371678,-5.82962209042134
2705575,0.10231993587679565,-0.06041265058208343,0.09280312889984133,-10.88170727814058,19.8574978179299,-2.7371801535847653
2705597,0.11299828857239107,0.010775229811382025,0.05681602965667564,-14.234939047723005,21.49914696130147,-1.3629920339474018
2705619,0.11888643655760987,0.07987350731025966,0.022696892693954324,-13.648896355239977,21.45148340610222,-2.251708866705441
2705641,0.12108969689134752,0.12802593171279036,-0.004571852893014846,-8.244778486324941,20.431367252143446,-4.652909681250812
2705663,0.12398801274552743,0.14918785710594126,-0.024084118590690595,1.1153465828254299,19.754742488360403,-7.2619916079811855
2705685,0.12735949608828512,0.13939879280777168,-0.03367014920299864,11.837518570125047,19.9567200764672,-9.02008526463539
2705707,0.12541834826654244,0.09833367427710914,-0.03155384781721527,20.606223121417816,20.709091355427535,-9.478752814030297
2705729,0.11582142917686292,0.03720866830593915,-0.020909474730721325,25.15919330853281,21.804656815023158,-8.814027155412507
2705751,0.10548269747459377,-0.022960431538412287,-0.008723339900210162,25.36723128451546,23.525881767021847,-7.579458273088949
2705773,0.10380879573186991,-0.06306666970014488,-0.0005183147642168982,22.709317635455168,25.974031915751464,-6.277708893827883
2705795,0.11245262444350972,-0.07596326821223796,0.0020382097205503525,18.995856061284055,28.599215162246868,-5.049725260651915
2705817,0.12524396961236256,-0.06867310858206735,-0.00031983032306955327,15.639238773805982,30.659271705057012,-3.702261300340571
2705839,0.136907126337237,-0.05800788108948991,-0.006018770675263875,13.52758533176386,31.840743787045085,-1.959461985449749
2705861,0.14837874811890647,-0.06046802261905245,-0.01352169739396128,12.780505003357232,32.20585795727201,0.22774751426010081
2705883,0.1635029899095972,-0.07894245691195956,-0.02287653115936396,12.470529355308596,31.710274435377634,2.361079425541612
2705905,0.18296894238252048,-0.09700966397711894,-0.036254418888634204,11.207170007165509,30.00936451506926,3.3275200842321286
2705927,0.20217526727511684,-0.09132329779960145,-0.05505463394842678,8.649327793593336,26.848420159060545,2.1134818452034407
2705949,0.2141951057213819,-0.054599138468703935,-0.0763620389895702,6.500244417136819,22.778619006547633,-0.8328245683998321
2705971,0.21565598458438423,-0.00651411008937368,-0.09404142689712422,7.555120899981988,19.472478240810272,-3.108140217599454
2705993,0.21120457110444854,0.019645530515628524,-0.10373692171352338,13.186160892405391,18.827301924419476,-2.2069391496716686
2706015,0.2110428499972745,0.0024515408504442336,-0.10530814916896189,21.36193554105402,21.132161157352858,1.4306208424512543
2706037,0.22188951184648878,-0.051221801895744205,-0.10023569404543611,27.228103279848,24.131702076131834,3.685879366585556
2706059,0.2406336961151714,-0.10999251232215077,-0.08894112536020049,26.373163571314045,24.467098293643897,0.08156333352557027
2706081,0.2578478991920595,-0.13976473516783192,-0.0720477886409247,18.456491789113727,20.430321620866373,-9.740533785253112
2706103,0.2664347449206582,-0.1292235634955551,-0.05269123676378371,7.961951414144201,13.391145032784753,-21.005829920931816
2706125,0.2660679190360434,-0.09815747746616833,-0.03538589348526992,0.9420407243154503,6.7083015164281345,-27.345717589946968
2706147,0.2616605478696169,-0.07979717652041517,-0.022461552092956298,0.3295058529170134,3.3630722120363257,-25.590326302288567
2706169,0.2605366835689673,-0.0930949042721131,-0.013038250727113673,3.893928919070214,4.193690927084266,-17.972226644263483
2706191,0.2698534886166513,-0.12975377858411286,-0.006182914323367574,6.4379533272982545,7.6262384495036795,-10.443309803757959
2706213,0.2917936763250856,-0.16421342396730168,-0.0036495314821426957,4.0700480101682315,10.826132946880447,-8.369178671571406
2706235,0.318587043518122,-0.17397602521444824,-0.007592657392030355,-2.9788590884446178,11.611300875724043,-12.515869535377336
2706257,0.33519056929279223,-0.1525897176162962,-0.01626084669559838,-10.90637316143238,9.909196779321487,-18.590879123356913
2706279,0.3314036922618639,-0.10862359039082096,-0.024805884844469713,-15.393320251296227,7.573747897420793,-21.117489853233316
2706301,0.31238135278510426,-0.058198631960106925,-0.03103377433769076,-14.483833011623783,6.66238425436224,-18.128571427483962
2706323,0.2956637313894946,-0.020125220642239157,-0.03788468350901229,-9.206459573720258,7.733179187673565,-12.039710494396104
2706345,0.2970620310099542,-0.011020035303045034,-0.04912416882888009,-2.21498086620174,9.582443502164713,-6.331543952844321
2706367,0.3186795636169685,-0.03476382117722869,-0.06436091236926068,3.850796615656272,10.311677359855889,-2.2385624155064603
2706389,0.3481225994569987,-0.0750123656450932,-0.07882170019850603,7.302768484106388,8.624115380363664,1.167045172364832
2706411,0.367442949820731,-0.10487065559145806,-0.08626681204999168,7.720907278198886,4.573582680883727,4.590264923789929
2706433,0.3649059617560059,-0.10830246058923858,-0.08203423862428627,5.816041527244935,-0.4303843789268077,7.177128995702506
2706455,0.34237067753561606,-0.09120969558532509,-0.06552033392946177,2.914183651393472,-4.375148214721071,7.589107427054568
2706477,0.3134139309804252,-0.07194033332776245,-0.04112829075120719,0.32946222791226876,-5.866158082560879,5.7727053125962335
2706499,0.29320600919007417,-0.06362351608545003,-0.016365036529647232,-1.1175785491083412,-4.995547074257883,3.1678072606447363
2706521,0.28804788426553735,-0.06586495162205205,0.001974446820789375,-1.3152578587050023,-3.0979970808468065,1.2910344238447218
2706543,0.29328823799079956,-0.0703452205882201,0.010795068053745714,-0.7014949356989607,-1.5887627104350455,0.5405601135308276
2706565,0.3004486631322395,-0.071264414450251,0.011080266423417431,0.18055460826673178,-0.9691886919728465,0.39612507254090995
2706587,0.30534769062593764,-0.06973480366008046,0.00620843734982846,1.0178436439444145,-0.849469701826413,0.3090629727973181
2706609,0.30919624333284107,-0.06998799846830414,3.683419388092479e-05,1.6952215222486562,-0.7172469904854883,0.12721072671718198
2706631,0.3136931198047564,-0.07367276498798422,-0.00423424236131842,2.0908510095476514,-0.4978602801601478,-0.08009319511364991
2706653,0.317476304796936,-0.07816889485081306,-0.004864727600130292,2.0304186064362155,-0.4254191950483651,-0.2538732747144366
2706675,0.3178276216781352,-0.07903742732357172,-0.002383087963081233,1.4575521858953457,-0.6112345878987862,-0.38051706399983437
2706697,0.31444536655555794,-0.07363902968993305,0.0005180613592637634,0.6193752795696629,-0.8955503119837162,-0.490535382120244
2706719,0.3103677116997622,-0.06383738744132027,0.0008254423544537507,0.04931623946191634,-1.0773825788770663,-0.7240427786034771
2706741,0.30917465515238557,-0.05626457138648961,-0.002258480205139486,0.2695240660243144,-1.1624235653247483,-1.3060432319966344
2706763,0.31160847771756656,-0.05848835264565261,-0.006348200816277147,1.3527096010326338,-1.314670962840176,-2.2970352831246195
2706785,0.31484697996943084,-0.07247145598215372,-0.007521346260377275,2.700292002934075,-1.5911591134765113,-3.32334344416806
2706807,0.31481543217252156,-0.09171216876242665,-0.0031269141060241003,3.3536392368482844,-1.8091025339864293,-3.681570571371189
2706829,0.3093652155087764,-0.10705465260910613,0.0067163762269135735,2.7078399377784645,-1.7331153309782636,-2.885008194221405
2706851,0.29987282928816306,-0.11614213502589778,0.01972239719375673,1.041531513226918,-1.368986461465762,-1.1799834409189305
