timestamp,ax,ay,az,gx,gy,gz
2746979,-0.002160341916100341,-0.0032890615281073285,-0.001258731007138371,-0.997629625428963,-0.4825229725609128,0.3168165345357093
2747001,-0.003977634546106825,-0.0010955838412267118,-0.0008530009907333189,-0.8102673571659442,0.019529629049480017,0.19553667615529274
2747023,-0.005127388261570363,0.001499740041044544,0.00017391981594071023,-0.6610219174425893,0.4493473281983168,0.23341644985207588
2747045,-0.004880202875007866,0.005181897247636482,0.0016131140585310254,-0.5012442303109022,0.73621621718661,0.4259114265335414
2747067,-0.002570669164174863,0.009307848921068208,0.0024112491774695884,-0.215177477274081,0.8116045912557868,0.5648554791196834
2747089,0.0016764642538616452,0.010761050142246893,0.0017052409987316677,0.24786112006897162,0.625403461259626,0.40557510848976125
2747111,0.006094934893964368,0.006325963461029609,-0.00013439794680253654,0.7523485629947652,0.19522404170435165,-0.07945087247435745
2747133,0.007766704963828541,-0.00346264917415096,-0.001766585374475174,1.024463080821841,-0.34906794664382645,-0.628194648552353
2747155,0.004868088479575872,-0.013778425715217372,-0.002169349223899083,0.8609046633862056,-0.8048799360050685,-0.894143285417501
2747177,-0.0014297375358647514,-0.019022680278953128,-0.0013379435758575835,0.30034260969410415,-1.0248758655961892,-0.728216188928083
2747199,-0.0077463644372554,-0.016740114861188222,0.00022763292968901397,-0.40449576021852607,-1.0111015321006747,-0.28342595659422154
2747221,-0.011231951840711537,-0.008870305314099988,0.0021346989818484137,-0.9690717552498218,-0.8690251990541794,0.12264044998833848
2747243,-0.011331745195976302,-7.19523341985934e-05,0.003970671365178862,-1.243586004515573,-0.6857835686171512,0.2578471685805026
2747265,-0.00935904969397558,0.005394409404600533,0.005184948806693933,-1.2384958461611737,-0.4863854942585035,0.1388769989931509
2747287,-0.007287817380696144,0.006002430134907944,0.0057284804944530525,-1.018451931703546,-0.29559221733299346,-0.007933605810229689
2747309,-0.00692948666057705,0.003122003350826689,0.006528197354895287,-0.5977382642983017,-0.17466490512509525,0.07342189685817208
2747331,-0.009042457702174357,-0.00023351469280754643,0.008622007439560767,0.0331910570953138,-0.14915371218302556,0.49894962625710054
2747353,-0.012365345359097373,-0.0008380835106238662,0.011870249075656886,0.7885491077292346,-0.13213324132769302,1.1666615693392208
2747375,-0.014069880250382957,0.00276822099732228,0.015259567692501115,1.4631880138388866,0.01594593648784039,1.792086825840491
2747397,-0.012018369593153628,0.007876081088947112,0.018635198705982254,1.8874580044629257,0.34690740738921144,2.090086126205312
2747419,-0.006242267101716752,0.008045313694952025,0.023241343835567134,2.080050965994464,0.7923369525807918,2.0382912248342806
2747441,0.002607038600125375,-0.001201052027236833,0.02988315985150435,2.169693088513612,1.2488794667692458,1.9620236933682507
2747463,0.015510511249767161,-0.016166274088432322,0.037421286729575676,2.1321633217621883,1.5638548655475921,2.2239659680241375
2747485,0.03339141050644229,-0.026664057932543707,0.04480323443511774,1.638332191953798,1.38333504674107,2.7395943926767274
2747507,0.051936235456523865,-0.025930228298855402,0.05499392628111925,0.23405935456991203,0.26338407968542066,2.9139704273205798
2747529,0.06059579892175539,-0.0179400165713006,0.07478643277500603,-2.2335849920495505,-1.6604742876412881,2.2383885766130858
2747551,0.051095546695509635,-0.012773360012307666,0.10757535633474484,-5.301244521195381,-3.0563020869219297,0.9102749934832781
2747573,0.02785892896452348,-0.014354901074822925,0.14543666018202286,-8.039485342743138,-1.9526218237152102,-0.33103154572518617
2747595,0.006452313779934497,-0.013519176457626063,0.1710174866668093,-9.623001941350262,2.541335876099714,-0.9781356637620028
2747617,-0.0008251885754433665,0.006413584649618686,0.170433441975093,-9.758421452172302,9.086955099993224,-1.1861641208016565
2747639,0.0035407632743021636,0.05470233233213721,0.14502630476741335,-8.437864008504434,15.08409858672084,-1.4726079065409359
2747661,0.006357378961818223,0.11808198580948151,0.11009510857197935,-5.333653586100421,18.985141670969693,-2.2435569735457612
2747683,-0.0018022808856517814,0.15903468148814928,0.08251036181481827,0.07619325634965501,21.571502458808556,-3.6072591226403072
2747705,-0.016531022783993553,0.13865429226454767,0.06896552090647942,7.224330709633924,24.917645285397075,-5.244314166843186
2747727,-0.022341607135180595,0.05385103433751678,0.0636281309226162,13.439831274844355,30.20523934025101,-6.208254650570656
2747749,-0.005094868447207946,-0.04750968680358258,0.05526190688507832,15.18662113931968,36.54275018408659,-5.285295646644772
2747771,0.03587022249068938,-0.09966853239005362,0.03708567127607051,11.164298958909288,41.695386588607384,-2.273163572973799
2747793,0.08555808535691822,-0.07495874559035645,0.010624776339137922,4.0905858866893565,43.82874293982875,1.0600039301353792
2747815,0.12353454703762179,-0.006268614516660928,-0.01913456588020388,-1.155098704572928,42.77898213713422,2.07210767115626
2747837,0.13858231999470824,0.044709820701557296,-0.04954772604329605,-1.3876559421391292,39.99980078965986,-0.12066111261301599
2747859,0.1354295311884059,0.037297679892694585,-0.07878355535255156,2.6641239197023645,37.33794980483739,-3.3639758788082803
2747881,0.12858532205669698,-0.023409093015173285,-0.10099400224821671,7.276193250515575,35.63941162700072,-4.294665287884071
2747903,0.1304514212567481,-0.09572093828614538,-0.10832686048417484,8.480871341927216,34.38871694864456,-1.4842454963340506
2747925,0.14458496636769064,-0.13091725471249446,-0.09887391935077647,4.782665380761862,32.642352675717625,3.3846836736165464
2747947,0.16711332473010876,-0.10683366487990795,-0.07910112182102084,-1.5812223228156848,30.162964944823994,7.310565780501444
2747969,0.19096418553697558,-0.044865207716091135,-0.05678125243515288,-5.978829732134824,27.541898451481174,8.587557515651072
2747991,0.20892554924148857,0.007512857207537018,-0.03440113645310703,-5.028186675989022,25.388830664444296,7.531086701892569
2748013,0.21695427006333917,0.01856696793507748,-0.01179079210447154,0.3327753759398814,23.627836338532525,4.914611681554595
2748035,0.21740988706477385,-0.0018596797023757762,0.0075114997396496675,5.613280157892886,21.560669187222945,0.3349328468172424
2748057,0.2170084239453428,-0.020588275707122645,0.017025021800481554,6.975550045637911,18.54820031301165,-7.151349953612273
2748079,0.21912146094682927,-0.021553895722734705,0.014821072182964886,4.626795080104716,14.795343375135493,-16.509628778350308
2748101,0.22022415606130685,-0.020197030316807457,0.006706619170406275,2.0366662098643022,11.592288312284301,-23.44588357438536
2748123,0.216975692939707,-0.037084044150864304,-0.0002758646095448922,2.2365692076129147,10.456866331475322,-22.823678467564914
2748145,0.21425445133592266,-0.06695280233092432,-0.005898303980370715,5.232116061045049,11.517969037054689,-13.331059141421111
2748167,0.2208439428625196,-0.08225312530467345,-0.016060958271210755,8.74197015997512,12.756474146266534,0.18536770716852624
2748189,0.23729011324828603,-0.06469860737759776,-0.03471278388116444,10.807834120384653,11.498880960720061,9.824056860608732
2748211,0.25329620379231355,-0.025598895041751023,-0.05860730785296919,11.389492509510818,7.113321592009813,10.902902363085673
2748233,0.2590529161885005,0.006120416752957183,-0.08014607154970492,11.75406174712544,1.8930204346250235,5.409822245674355
2748255,0.25530983458242235,0.01052447215949861,-0.09342168571613127,12.833585052171866,-1.1704153089692206,-0.6806171970674791
2748277,0.24994336625895208,-0.010384685724469619,-0.09690462870674091,14.29473570881036,-1.2429767546921406,-3.04082106071661
2748299,0.24803014908118343,-0.040496308818630596,-0.09221442936202445,14.92259268777392,0.07505519327095128,-1.7994276601508616
2748321,0.2486872357085339,-0.06501450402657169,-0.08189414386626143,13.715797139580882,0.8991907867206858,0.2821190141202061
2748343,0.2493873269862899,-0.0792343754586866,-0.06777740660752544,10.711899969802829,0.7885954760792674,1.160556443046216
2748365,0.24906936100787527,-0.08621746804249836,-0.05058249014401224,6.902108990659215,0.43954605932940116,0.8845365124286262
2748387,0.24692846227757337,-0.08848052879901186,-0.03129446536725679,3.4005472434974062,0.428468341602102,0.5275849984167167
2748409,0.24165954827730532,-0.08341160788724018,-0.012896130696580453,0.7232680156372391,0.6705630708514082,0.572810940276649
2748431,0.23382953497701642,-0.0676388836603907,0.00041615473402342555,-1.1772448003382747,0.8407537557438256,0.5025698550130483
2748453,0.22750843589519218,-0.044503359778794466,0.006520411692565952,-2.392838885341403,0.8920753842677897,-0.30710365569506354
2748475,0.2273685958264025,-0.024363453078844736,0.007430740613819325,-2.795089710383274,1.0401850593392608,-1.6548303294684554
2748497,0.2338284594496882,-0.016557458856141804,0.007531046144884253,-2.281689224186123,1.3970594486897496,-2.6671394043175303
2748519,0.24215778009692648,-0.022187535810828857,0.009793554265811258,-1.1141285708372701,1.796822898706507,-2.7739249218867106
2748541,0.24708320671648187,-0.03484337351557244,0.013682360323487075,0.12279689864030055,2.0123592008204763,-2.2793994821156516
2748563,0.2477691747112571,-0.04681036131168274,0.016361074783070355,0.9177947917023442,2.03553342812644,-1.909718198495153
2748585,0.2475167264585634,-0.05397344934321816,0.01572428891679724,1.1643393419665737,2.042495736744216,-2.0119836276393968
2748607,0.2490854080930091,-0.05611958057602788,0.012320405556274198,1.1158125470979654,2.122473325972917,-2.357381067121585
2748629,0.2518495414555447,-0.054690377129178194,0.008449144467720462,1.094933945512798,2.1579244506128243,-2.587366531689541
2748651,0.25387148740295734,-0.05178057974369951,0.005737985308415617,1.291718418155057,1.9803807342119875,-2.619794676871215
2748673,0.25492384640048915,-0.050986771329487555,0.0041833809027570805,1.7385017723463778,1.5430035243225086,-2.613716674732047
2748695,0.25583452280132135,-0.05668776005757392,0.0035504103396691434,2.299184614132888,0.923823897038673,-2.694961761992064
2748717,0.2558248363504171,-0.0696874659359967,0.004596199167189394,2.642411384579846,0.27129013737963303,-2.7734327572049926
2748739,0.2527853284511645,-0.0834349702766055,0.007849668132954882,2.3973629276532065,-0.20499923604043654,-2.584666102360674
2748761,0.24674615883527082,-0.08736379306259277,0.011675873750439813,1.5274938108279588,-0.3002171614254491,-1.9357312994312115
2748783,0.24141110241271777,-0.07658588345372341,0.01305779314049483,0.5428689043843766,0.00861239521854566,-0.9783642613040968
2748805,0.24078058285983017,-0.05798947261228953,0.010823590795211991,0.17018152161151756,0.465354387462483,-0.19681052572606217
2748827,0.24477492931251907,-0.044725146174500366,0.007158330012174629,0.7040920137781794,0.71228787003093,-0.0026263118687022413
2748849,0.2495152903608482,-0.04403203634889307,0.0051793564244085885,1.738097847856223,0.6134932637364862,-0.310440895316989
2748871,0.2518115363895182,-0.051624888309276175,0.005612807714735871,2.596204194160153,0.36420527040908807,-0.5997833906836469
2748893,0.25202474156428983,-0.058288067748294606,0.006709726420611546,2.967741282994076,0.23327736842237215,-0.4477874829557847
2748915,0.25223348701597137,-0.060272837807160994,0.007073907038126199,3.057514207205655,0.21444283522956564,0.041847871940291013
2748937,0.25305793307420016,-0.06196920061517843,0.007458768197732591,3.217906295620888,-0.012238630051766801,0.3624717187537099
2748959,0.25344138399015154,-0.06938689336946396,0.009470648604812395,3.5957168045077315,-0.7475161866677869,0.11202942834245107
2748981,0.2528468054143093,-0.08277251804022684,0.013238261443039164,4.117842515490304,-1.9194012761792025,-0.6305242511866155
