timestamp,ax,ay,az,gx,gy,gz
2718885,-0.004630434957296356,-0.001603383686043247,0.0013615364754220158,-0.6581301433156249,-0.1833983129039246,0.7056241292134882
2718907,-0.0028237190460879682,-0.0017643920960263928,0.001134840836388397,-0.5634358064184123,0.14044575617801547,0.5481567291296817
2718929,-0.0015479763204448932,-0.0027578239807258343,0.0004730367343260711,-0.4685528144302791,0.30783182310185914,0.3455591386903325
2718951,-0.0010627236179210475,-0.003926491606188654,-0.0009307752025202555,-0.38236639162240815,0.27242628922474643,0.1708169212859276
2718973,-0.0012096238477006859,-0.0032227717523045023,-0.002870900123944043,-0.3029530463995007,0.1066315088257028,0.14069920700213312
2718995,-0.0013870281154867358,0.0005916172098298172,-0.00433512685667658,-0.18702912116570863,-0.07890648967056961,0.2176866414871068
2719017,-0.0007716909821501012,0.005841972603600164,-0.004029872208357165,0.039641979891555344,-0.20619043995067154,0.16711330013797876
2719039,0.0011450850995910952,0.008660998520046584,-0.0015269434228823721,0.41787307158566783,-0.23526900334701795,-0.20563344138699408
2719061,0.004048637448472227,0.006091252934591868,0.0021845457799965673,0.8868659341433489,-0.146354327495537,-0.7905379993383823
2719083,0.006768714242017248,-0.0013817210774844265,0.005600385221969517,1.2693858157911544,0.039050899289637585,-1.223595991074184
2719105,0.007804698366385089,-0.00973233391423462,0.008120908329759088,1.345389742883138,0.22791811929497194,-1.2247036704201186
2719127,0.006227073603512343,-0.013674954243120154,0.010129834518377017,1.0137902086663557,0.30920638730945704,-0.8410842980688468
2719149,0.0025994750865002644,-0.010345992698086443,0.011727700486309639,0.4434523036680183,0.27591995681998727,-0.3378415087104818
2719171,-0.0008587602342198285,-0.0021507003049422197,0.01244000959192406,0.033006596557418375,0.25422426113188723,0.1023145722172105
2719193,-0.0015402029111186283,0.004173203909929784,0.013012902604406018,0.11368086440599323,0.3671203968508307,0.5084785503270077
2719215,0.0015837470170209044,0.0027202976945323422,0.016609511430050128,0.6011361569547891,0.6122217077913314,0.9496328177104822
2719237,0.007198448026365646,-0.0058702029258981755,0.026166275222421154,0.944458220160106,0.9375885508371746,1.299125397161589
2719259,0.013034626472814611,-0.013117121192447212,0.03968701469562666,0.5337849847788513,1.378777481478405,1.2324148942575175
2719281,0.01833574796332089,-0.008031405082275712,0.04981213099069931,-0.6785333319962165,1.9711124165210967,0.4692332687923317
2719303,0.025294136552016115,0.013321690543275401,0.05088058232035691,-1.8892826599146564,2.500989544210489,-0.9533828648286075
2719325,0.037541496247040236,0.04069281387726487,0.04774650166567436,-1.92662405594273,2.554441706764724,-2.5566533330363597
2719347,0.05555295325693464,0.052774222800997694,0.05588692070765236,-0.3477151027658724,2.095664358837922,-3.535713128283465
2719369,0.07269566112707684,0.03261151494251684,0.08891391528943453,1.7698253502733092,2.0718084260112786,-3.1311067802708887
2719391,0.07787759261717526,-0.015054590610794788,0.14288959985761243,2.4080792453884827,4.1777793597019395,-1.0894754845513397
2719413,0.06541647176051821,-0.06267542166278653,0.19352078208540832,0.4703581471135467,9.58305916640314,2.1025439460727844
2719435,0.042764060143269625,-0.08151681079579029,0.21270002839138882,-2.8513890427813444,17.627619476642526,5.4072331397198035
2719457,0.025607673153717998,-0.0663171949866626,0.19097683416108846,-4.993930265839706,25.854749092911504,7.737201276931768
2719479,0.02349845899045637,-0.03484089614181951,0.14347308151939114,-4.548810783866621,31.610979602468177,8.451251524913024
2719501,0.03190292663709204,-0.0031266709889479303,0.092969058971913,-2.4987997013793453,33.92221638294368,7.594543175394298
2719523,0.03999168396461055,0.030433186640420593,0.04952394027011867,-0.5566804787252566,34.042296976666066,5.866396168368071
2719545,0.044395138088217975,0.07098659409115066,0.009031703152874085,1.341212424483785,34.22124098735795,4.353002071818332
2719567,0.05239430034072837,0.10420074961208205,-0.03116299267723761,5.01922525415736,35.783251107366034,3.9020354408435445
2719589,0.0720961323789676,0.0989254251576722,-0.061646257310736335,11.202513986857115,38.183049631587544,4.210679065225483
2719611,0.10276100544363367,0.0373805775259261,-0.06867312309562561,17.246377975304643,39.73237549395696,3.436307012816656
2719633,0.13580288475360777,-0.05974607884686916,-0.04987908683435111,18.568606600040713,39.12277048005857,-0.6708625113501916
2719655,0.1625449852597434,-0.1412570257315075,-0.019271906943808273,12.72687692080192,36.38533639709629,-8.47776683855962
2719677,0.1792449027134809,-0.16081556289782117,0.00315151035424426,2.0615795613774255,32.77722015772625,-17.14457783142635
2719699,0.18709829192242922,-0.1097768732510541,0.005750625524061877,-7.667349173498044,29.959773397667803,-22.134251068009505
2719721,0.1906783065173366,-0.022499715304560998,-0.008814433283571498,-11.361816260081737,28.99654829262001,-20.78612820862883
2719743,0.1959803748562857,0.04793839849342981,-0.02837574800006631,-8.034650977954197,29.68623632497583,-14.801321810328183
2719765,0.20699615952155784,0.06528404623445222,-0.04096886284382201,-1.1756369396096749,30.754643726259996,-9.090683486395903
2719787,0.22243642811204956,0.03173977207163958,-0.0424749998515142,4.0298351294221835,30.87805667520729,-7.764300857488918
2719809,0.23634708255900377,-0.019078749715990374,-0.03823032554648996,4.419435115302054,29.628544848965856,-10.925996043868526
2719831,0.2434038737223459,-0.049817010594206235,-0.038238261670946065,0.5900645926813826,27.453797146714358,-15.28081220571967
2719853,0.24455310239046416,-0.043713433613356605,-0.04878193833704548,-4.439810317708416,24.93341348884509,-17.6680769289177
2719875,0.2468271081281307,-0.009341161614390444,-0.06606603142916102,-7.843654212487019,22.326608899601148,-17.612704516099768
2719897,0.25614125022698775,0.030228583621488277,-0.07781077064173912,-8.385407848448105,19.83428196134139,-16.503556304197875
2719919,0.2705620708777594,0.051860449519626525,-0.07325340036485141,-6.214368183020825,17.95884567899615,-15.198360707074492
2719941,0.2823579377159544,0.04416238113752584,-0.053328678869899344,-2.347162189959964,17.278566074475986,-13.236190001131249
2719963,0.2862922669320683,0.013095914943247671,-0.030483426741446547,1.5917387545310213,17.838968813667115,-10.088780715976585
2719985,0.2843189268081933,-0.02279577570778765,-0.017445354922548666,3.8696076554483607,18.947235707204403,-6.424145108477904
2720007,0.283541390982437,-0.04386926718995332,-0.01726499886754219,3.4500472829565196,19.648240600661527,-4.031287804527459
2720029,0.2919671994813168,-0.036125547262307114,-0.026127008347722663,0.5997848819001037,19.255408136698684,-4.6308722637903665
2720051,0.31373705075853664,0.007929625158104586,-0.0435392154062253,-2.742741525113086,17.32072824479403,-8.174866737649573
2720073,0.34322819451243086,0.08148854074921345,-0.07314822153206259,-2.95591053602623,13.405573588323952,-11.645989255247532
2720095,0.36450954419962833,0.15125518375578617,-0.11101031480734416,3.693897155434387,7.403880699299752,-10.243273147386336
2720117,0.36306493016124297,0.16973251966857947,-0.14000907253511416,17.598725293578884,0.13001966346248406,-1.416834105073843
2720139,0.3398190711386135,0.11800671281996628,-0.14334578038152282,33.76207952864541,-6.946010091698737,11.820336953268038
2720161,0.30895250396280727,0.029990774801769402,-0.12104943848649088,44.848122216069,-12.779593848190686,22.694769582022925
2720183,0.2820413173423416,-0.04117195526920813,-0.08740471494897661,47.19907884863891,-17.091722260912906,26.38232201971307
2720205,0.26069129442805605,-0.07632282941345425,-0.054961818600435,43.27713871482422,-19.45642895000028,23.51941491076765
2720227,0.2445482615901426,-0.09808762283111701,-0.0274305602161602,38.08474186539074,-18.878896481358936,18.356886729012032
2720249,0.23806084339991665,-0.13184270593438666,-0.006223712403499265,34.174565439396225,-15.018070232217708,14.593630216909716
2720271,0.24522988678366114,-0.1737837733358163,0.004029911651636615,30.49982650663411,-9.428335381579615,13.14081767969783
2720293,0.2616028902449682,-0.19892736956779167,-0.0002457371522602127,25.107382317072766,-4.804507849309349,12.735913345521812
2720315,0.27556982237467875,-0.19026750175852772,-0.015090811244201615,17.92050147470545,-2.8259742822468934,11.794861914312078
2720337,0.27824341567939986,-0.15457503789679555,-0.0304367270628291,10.970494020341894,-2.9452482633209325,9.780419575587118
2720359,0.27133980559541293,-0.11441666559198006,-0.03834765196921239,6.577043425698946,-3.316237169333984,7.240456813090666
2720381,0.26452648398684897,-0.09094327935326502,-0.03858230316613444,5.512008590318997,-2.754751485928632,4.8031489785850585
2720403,0.2650133435100499,-0.09327012142377039,-0.03592724839689626,6.543587133905227,-1.6869841880534,2.3743110906068408
2720425,0.27080331933219837,-0.11749815208246744,-0.033437990432910195,7.421864104333882,-1.281783842653876,-0.48211495195811205
2720447,0.2742777439528268,-0.15067326925507496,-0.029365627841652538,6.429868703079929,-1.9624620093591731,-3.521731280345997
2720469,0.2707026727536395,-0.17648061240220134,-0.020385485454868863,3.3933818574207844,-2.995948363783307,-5.630922452585991
2720491,0.26225009720332076,-0.18246240676141645,-0.006811984153414252,-0.4366039863128991,-3.3884992244955288,-5.890345420642686
2720513,0.25501993700034503,-0.16698336688001095,0.006101669671841625,-3.3570715295588256,-2.843718249922195,-4.607923536576958
2720535,0.25362666609452655,-0.14061231786053172,0.012304281078972632,-4.296964772224179,-1.7999127110155957,-3.0723831314053376
2720557,0.2582804070594932,-0.11860356350373515,0.010423130821518528,-3.363115627768375,-0.8407587325656339,-2.4169128426733457
2720579,0.2655885299208877,-0.10980549333334552,0.005068601028856792,-1.5559933509926256,-0.2774591229432084,-2.8668327592684855
2720601,0.27117928463126595,-0.11232210226033705,0.002774467955558215,0.12523453090961764,-0.13254720876748466,-3.861454493238739
2720623,0.2719660919880709,-0.11924779698675035,0.006676838630386614,1.439388795945145,-0.23894623071979398,-4.595399895980645
2720645,0.2676402477371228,-0.12657315201692954,0.01447976781989391,2.818553853200357,-0.30972644156059903,-4.52094289605205
2720667,0.2613645234593992,-0.1346282340641476,0.02052537461827935,4.583258750562161,-0.09953280737055795,-3.644598884563645
2720689,0.25829140910864523,-0.1441017697558835,0.019805473576366313,6.35394787192168,0.36537453141264264,-2.4637491904792803
2720711,0.26178836724874305,-0.15336031836544742,0.01120710083680191,7.2820243681367485,0.7621016576910575,-1.549224091333155
2720733,0.2707009460398493,-0.159590890050298,-0.0018679739687676128,6.784709323964582,0.7463830799191205,-1.1785087607828357
2720755,0.28038686063183305,-0.16117835377234574,-0.013549221930975896,4.9998466759425995,0.220801677628714,-1.377229296110831
2720777,0.2859177978424898,-0.15886010379821436,-0.018620057314060273,2.6068518772949454,-0.6766960478665931,-2.137974800424013
2720799,0.28463510029146033,-0.15506088441175578,-0.015098742751120884,0.34746204370104894,-1.7120775081307003,-3.357102512074887
2720821,0.2774358139200676,-0.15192010692400165,-0.005252573433961744,-1.270545418860866,-2.5789241852748233,-4.5765259027900935
2720843,0.2684496259368021,-0.14974254854227598,0.005810891943193301,-2.006623319162775,-2.910357058071872,-5.064222241457211
2720865,0.26208627432564907,-0.14750152240693257,0.013745572860857615,-1.8816099807349942,-2.4864042600630034,-4.357043736644301
2720887,0.2590976550760559,-0.14461977687189823,0.018221630839881695,-1.2142711354056452,-1.4955851973322634,-2.732697392323589
