timestamp,ax,ay,az,gx,gy,gz
2676777,-0.0020188463034156398,-0.00731685687699629,-0.0031891456345521786,-0.3800053442310181,-0.23631494324600305,-0.948509133849799
2676799,-0.0027009627965040714,0.0007223951925633968,-0.002874138148284831,-0.47581519064681566,-0.1932359887514362,-0.3490146017891884
2676821,-0.002531927033807215,0.003425156993860001,-0.0014849751424466852,-0.3771685289461323,-0.05982878300704682,0.2726233806563872
2676843,-0.001756379730954767,0.0011521309779168772,0.00021627090137219071,-0.1621975111113722,0.13087013172726472,0.7375701840934445
2676865,-0.001191513839815857,-0.000612013039016558,0.0003640569645718093,-0.05936285819100934,0.25865075720419534,0.7696209185263103
2676887,-0.0007835860307727965,0.002097441886621074,-0.0014297503076311664,-0.09618298755113089,0.25480569675009634,0.33266809094347993
2676909,0.0005058063567578626,0.006584967895936829,-0.0029098871361117693,-0.035067240340288144,0.15409002932347785,-0.21960071424087546
2676931,0.0029019311753468104,0.0064861456402220555,-0.0012102953195584553,0.275889532139098,0.017871797993375786,-0.4419819631072528
2676953,0.0045309137001376815,-0.0004914383171691874,0.004000217899910645,0.6149890116219029,-0.12817222591403105,-0.24588211041259486
2676975,0.002889461071734817,-0.00959460377304143,0.00970491698227026,0.5818605499548533,-0.24680590792653817,0.04412760773151494
2676997,-0.0022030999062076467,-0.013957933712207153,0.011890906814129534,0.04830983872535462,-0.2294768774778477,0.10216757917583938
2677019,-0.007583083261816514,-0.010999807646148928,0.008857146152906066,-0.6829937719777877,0.032575804025572835,-0.03901249973827433
2677041,-0.009149182475142046,-0.0035799980285952534,0.0027629056886391682,-1.1668503171117695,0.4818943453290759,-0.12281355499353856
2677063,-0.005611434641746331,0.0036617973730495618,-0.0018471789202825725,-1.1943931639653744,0.8512440397087936,-0.0780545645010939
2677085,4.9587192461408e-05,0.008045965856641456,-0.0016523168859689022,-0.8907648163205356,0.8815588344441905,-0.121352289414173
2677107,0.0030867910763744642,0.009749529726507047,0.0026181924652794305,-0.5198705691778042,0.6188756670506788,-0.40883347182094215
2677129,0.0012647292587316373,0.010385660572223919,0.006995729737353818,-0.24253091031082827,0.4258811424731252,-0.7471955317240428
2677151,-0.0032295138804770956,0.01113289983257523,0.008251582217594505,-0.0361791517389243,0.6253911206941144,-0.8200921133212288
2677173,-0.005984843860868729,0.011837445716170571,0.00703667285840025,0.20845482114451735,1.1646820581539812,-0.6476260855639797
2677195,-0.004185572503753116,0.011525269181485618,0.0068695565187061785,0.5451888382552658,1.7060312510619666,-0.6112406305165208
2677217,0.0016672604566296582,0.009651338793237495,0.010138899718725685,0.918565754810448,2.0257203970256508,-0.9390559371085525
2677239,0.009155751557439798,0.006789626795504979,0.015424925331338244,1.2181310484946195,2.219335229907467,-1.308901225932806
2677261,0.016474528016729693,0.004037062958858633,0.01894348440937797,1.3535385631291705,2.462109998678933,-1.1391975025421006
2677283,0.02372756311940895,0.0017351239770943712,0.018690906361088496,1.2759299679300857,2.6371464316284063,-0.273297514749854
2677305,0.03222824933037597,-0.0011140847183797608,0.01729952766881475,0.9621366907351792,2.335274269815858,0.7871366733774471
2677327,0.04260671790668448,-0.0057023340780337,0.02099050083894263,0.3973455682745887,1.2958602490377666,1.416993473347622
2677349,0.05334662943109961,-0.010771810002414912,0.0355315995782728,-0.4444416878031568,-0.20382617304126366,1.499072795329496
2677371,0.061042880512863294,-0.011100799864575467,0.0623820122717422,-1.567361933792789,-1.4767954696172336,1.3693046914582674
2677393,0.06186795494964726,-0.0012459718898019153,0.0979051046413842,-2.792191412460776,-1.9128808839523948,1.2489540920151387
2677415,0.052754132358804176,0.01613316677973025,0.13615965100686772,-3.631464468144244,-1.227975785759601,1.007965492880651
2677437,0.03293381893151847,0.027512921690341932,0.17227695994472692,-3.556588467686446,0.7657813757514111,0.5696201324583443
2677459,0.007565192425843486,0.020642479650990864,0.20193303016509404,-2.6039827273059295,4.383849779644937,0.3510657162688608
2677481,-0.009919837378072942,0.0022364769496868915,0.21719653407085812,-1.573231360152878,9.696854446855156,1.0874890388620293
2677503,-0.004611531991857182,-0.002773198899871112,0.20667952257745814,-1.230929412944137,15.777210223730043,3.1533922963908374
2677525,0.024507729073207966,0.022980217272674887,0.1654215483104595,-1.2353852872003654,20.614510005152233,6.0257553102706325
2677547,0.057065538971799,0.06674597290363563,0.10465435545926921,-0.2818740362412822,22.456697059854466,8.347003618669557
2677569,0.06671966774158997,0.09642220076748757,0.04580817841702914,2.401816106716067,21.737728836489403,8.631609098745725
2677591,0.048247938562115435,0.0926760153531655,0.002521022967653104,6.107255980924655,21.40789165089545,6.362183875810236
2677613,0.025808465441566838,0.06268345070905083,-0.027175825204261265,9.583760093273733,24.55185626189169,2.765166761445238
2677635,0.030211368777872876,0.02365855639192826,-0.049894149501888294,12.453199548153869,31.23881683651191,0.24874750813167673
2677657,0.068948903075188,-0.01567179598120179,-0.06449486195494163,14.999052763362544,37.97284484359881,0.433067546555489
2677679,0.12094664042269004,-0.05310752817688605,-0.06463351548435024,16.848714412423284,40.64162154731491,2.557190094679004
2677701,0.15927578450656218,-0.08213019092672312,-0.04971709115959189,16.84683050348613,38.07890733217145,4.259704839577099
2677723,0.1743698431161037,-0.09277199420244714,-0.028222707133994197,14.534868237192775,32.66041916354025,4.143958673638709
2677745,0.1731818053678828,-0.08297106000499281,-0.010267935468657941,11.150186852859575,27.634897052483552,3.1412568867585016
2677767,0.16208790911390228,-0.06446664535572581,0.0004215076025570858,8.721885219738157,24.41276946332511,3.0050163476991747
2677789,0.14133604527891086,-0.056644511120122025,0.006988891861388551,8.363600032907067,22.61241445630057,3.944916612945782
2677811,0.11818585571531598,-0.07431002740889703,0.013949360740369631,9.509027163176972,21.87739203478619,4.50604818993898
2677833,0.11361577288419453,-0.11573979437347616,0.021913002526309365,10.360284664890898,22.397028595134394,3.7197236525691104
2677855,0.14360464025142358,-0.15688773983614068,0.02654124498289995,8.947080897448393,23.523555404005105,2.5093829895818036
2677877,0.19573295204453106,-0.161909091604514,0.02192925017330465,4.563281178747116,23.168266486238277,2.4652124369269814
2677899,0.23632669304137036,-0.11204919491677245,0.0057145884016923925,-0.9429667184804513,19.68437402767842,3.7008488985803414
2677921,0.24510751295216038,-0.030601674199955495,-0.018098122198721738,-3.5675200009061907,13.945930601830044,4.6016503783856315
2677943,0.23400383101275493,0.027258765980144886,-0.041015484468467346,-0.038021404651032084,8.477782580538271,3.594652987723774
2677965,0.22560504183718355,0.01939947958755032,-0.05533359251965601,8.908128309026269,4.598226158308064,0.524892105215264
2677987,0.22255215644774917,-0.046379458930141844,-0.058919980201315114,18.392647166981398,1.5762811653559194,-3.803469999526484
2678009,0.2103787486677179,-0.12268024909722085,-0.05594743841628545,23.131761778898667,-1.1788776628078064,-8.670026840204095
2678031,0.18569948061780206,-0.16644723614488247,-0.053020507328264015,21.49820216978087,-2.4585256982890407,-13.45779459307784
2678053,0.16697940127160613,-0.16765952055237918,-0.05415989014421285,16.037511219176622,-0.7323219351584598,-17.16121680097703
2678075,0.1747741695589842,-0.14126490622531035,-0.05898526249738418,10.640158482754847,3.4103157554963777,-18.774618168206057
2678097,0.2095074402271675,-0.10711103957570646,-0.06414148630675856,7.743156815541057,7.247030873346447,-18.251956093488975
2678119,0.2508082687819025,-0.08358321108222304,-0.06482682859763438,7.621814791343262,8.225421691632027,-16.531525001388015
2678141,0.2739132595438863,-0.08668585504877516,-0.05637635286317151,8.8799500718551,5.822934103001402,-14.520870443210772
2678163,0.26677753160096807,-0.11738814285304279,-0.038069625000715354,8.966553592014126,1.3851372075247572,-12.55872317418821
2678185,0.2371723030039541,-0.14890041879664348,-0.016326571348493052,5.24405754451244,-3.2200490014298135,-10.992651333137239
2678207,0.20671062201700502,-0.1408868125208568,-0.001436657316114743,-2.8969896927056524,-6.645146763439188,-10.546875962230196
2678229,0.1953469769798684,-0.07792337216012102,0.000827311001390742,-12.394244287309087,-8.327954022851767,-11.332287578188993
2678251,0.2067997525942368,0.007316216253960905,-0.006137188944167611,-17.599979655021308,-8.322331787211986,-11.682380879427281
2678273,0.2276569438093592,0.057440685822476224,-0.013915524406342136,-14.249789072481551,-6.957489302018165,-8.987467291950185
2678295,0.241829661713505,0.04115707715429332,-0.017066913592416452,-3.2727737345003245,-4.571439512019098,-2.281371628302306
2678317,0.24437391671073824,-0.021925541804372048,-0.016331665805973818,9.42439967460612,-1.6919947570117868,6.351639355859847
2678339,0.24022802689669764,-0.08653146581991299,-0.01521348239754382,17.44814167238595,0.6714318417953992,13.219302941666523
2678361,0.2345407489934484,-0.12291634486794625,-0.015771405671964007,18.360839079145627,1.4790110440843907,15.58131433024273
2678383,0.22878030555513018,-0.1308949507389291,-0.017665200571039277,14.153649616243857,0.58308968586108,13.00991376184045
2678405,0.22331483096987373,-0.1254256535232315,-0.018700462014259647,8.434224997759495,-1.1166324711119149,7.203772442919782
2678427,0.2190855929037014,-0.11931393495476572,-0.015601491365384532,3.6697985065008174,-2.521569368080867,0.8842160280540909
2678449,0.21653510099696555,-0.11737681544133949,-0.00626560966996773,0.4318137475321916,-3.1522416552956307,-3.7065979495602512
2678471,0.21488734739384538,-0.11848734967872838,0.0076814091214065785,-1.7976366754290958,-3.1934988618890814,-5.875077438960021
2678493,0.21335580998604153,-0.11817283592419993,0.02135414311714464,-3.567470691451522,-3.0520874464113765,-6.351089572364409
2678515,0.2125300724671302,-0.1104161921040186,0.030186731228303117,-4.921656117583169,-3.0330357515375854,-6.310083473120729
2678537,0.2134366294937852,-0.09202434426940109,0.033115638795871254,-5.387915833265406,-3.271095618735225,-6.523341455033621
2678559,0.21495034266394022,-0.0689622169255179,0.03266811709641868,-4.2662661293770405,-3.66600462097214,-7.014007228791005
2678581,0.21355360043869304,-0.05653429089304362,0.03227759336202781,-1.1456961839873496,-3.79502399659579,-7.085423033367218
2678603,0.20702547818441266,-0.06818366028759963,0.0331296957999425,3.5052400227486844,-3.1285737446122686,-5.8405231704254446
2678625,0.19778452367343802,-0.1016735164226485,0.03307131998468569,8.17662236777429,-1.6007748717209227,-3.158133897883113
2678647,0.19131061573360383,-0.13840339239346833,0.02868042503783018,11.0167246186294,0.07695894932973683,-0.19945942370795972
2678669,0.1913463469509595,-0.15911900519816347,0.019028721802243225,11.014888632443922,0.9288293949000657,1.4526166443625068
2678691,0.1973322615568955,-0.16034367753443557,0.007751742487760784,8.598199841815862,0.633261453470252,1.3155878690097587
2678713,0.2061019240623348,-0.15454421992085166,0.0010003322263528328,5.07100616779708,-0.2022542741464224,0.4398839298512064
2678735,0.21499658243714137,-0.15556194707087398,0.002603255939689031,1.5352922189842868,-0.7400502901532479,0.2162446368494717
2678757,0.22327947132360246,-0.16562813170312218,0.010663358002492403,-1.6978802434141333,-0.7717630453927935,0.9344861448230278
