timestamp,ax,ay,az,gx,gy,gz
2796127,0.008891538850514075,-0.0060858913117355865,-0.0044057017222578635,-0.22248335306946987,-1.3414203328671215,0.4367536269819126
2796149,0.001529800307821226,0.0019166084518815823,-0.0009541542129716152,-0.21284103864357234,-1.611541390057538,-0.14767849318104545
2796171,-0.0033274242606332045,0.007372488183637649,0.002108276557926056,-0.12879716813800446,-1.5257667523894105,-0.42859306035072053
2796193,-0.004504513846479801,0.009175082845494769,0.004326733342774867,0.07166465289865143,-1.002447917531718,-0.3560096717349594
2796215,-0.0030558874420137916,0.007193322632649287,0.005332746168493566,0.3539712134079828,-0.2577228492216545,-0.13982756859723786
2796237,-0.0014983713652060042,0.0015990129409780447,0.004982474697585608,0.5779405561204553,0.419776655406128,-0.013735645765171294
2796259,-0.0014409281852985928,-0.005966718907681727,0.003309832531632722,0.5484887373359557,0.9015811309207166,-0.006014950086429037
2796281,-0.0019728353675217435,-0.011132777984037806,0.00047067358010131313,0.16883968010074143,1.2455235391460782,0.04574145030869543
2796303,-0.0007335091791115473,-0.008771105680145334,-0.003254071532089105,-0.41127791116335366,1.540685053618143,0.26777554860799185
2796325,0.003412067300808032,0.002248161860943878,-0.007441668389504913,-0.8229236895969758,1.7642363026040275,0.5703099311724011
2796347,0.008903181512681902,0.016348003337691843,-0.011329845314083336,-0.7262227446468038,1.790771718009611,0.7108864653878781
2796369,0.012643061092822086,0.024572186450850606,-0.013568414741611811,-0.10336452065418514,1.5301807073058753,0.5314502073878198
2796391,0.012580255177131641,0.022016440712892996,-0.012720966137113293,0.6782347923186864,1.0605933788397088,0.12649424588681676
2796413,0.009356058818316318,0.012452326802099605,-0.008661759672275593,1.140671722804411,0.6290118793930644,-0.22731812507433558
2796435,0.005717992390917382,0.0051313072926585475,-0.0032300625855675195,1.093428260560139,0.4894577615898583,-0.33108150499355066
2796457,0.004262938392391221,0.006391501475803913,0.0014397228708569762,0.7858408738567345,0.6901054542436217,-0.28509485794204437
2796479,0.005246758625189482,0.014095135508483007,0.005717273277460331,0.664345670879031,1.0216731266002608,-0.4293815157957898
2796501,0.006276281089489209,0.02032603064214916,0.013212504078883542,0.9656232074200478,1.25684896132673,-0.9720352974073306
2796523,0.004576628800838055,0.01994118852326169,0.028024249520974494,1.5225379496841738,1.5058765169737987,-1.6347887184489334
2796545,0.00016300414480995392,0.01665350907303671,0.05088732055813103,1.9579152354489804,2.2750207530880924,-1.8083812203241039
2796567,-0.003626083386289692,0.019296533834807797,0.07823327978937795,2.0994272752726726,4.042476360580654,-1.2992429798234586
2796589,-0.003837190832511811,0.02967114347783822,0.10538494870903185,2.2118098086292393,6.752648312338787,-0.9623875548568419
2796611,-0.0018580493266485679,0.03420640661310817,0.13026793245309295,2.7278861714104807,9.861762562941609,-2.2477286275657327
2796633,-0.001363875576437127,0.011942275376974605,0.15294549150039427,3.6358334906423826,12.969303459587042,-5.642998792998831
2796655,-0.0008609231873750587,-0.04438877713170565,0.17129872964591306,4.127605485889188,16.22607001281625,-9.508841601514447
2796677,0.009571821555218763,-0.11349555837255247,0.17836523467388243,2.9493420894477587,19.806350867437573,-10.98553943259145
2796699,0.04004764653330758,-0.15291578224696667,0.165612794858254,-0.7380814780867962,22.946193356028612,-8.664464493734584
2796721,0.0873350901436466,-0.12592977794164614,0.13051191837525639,-6.550358621596762,23.91919166581322,-4.524321296286435
2796743,0.1311668354408015,-0.02991918011847957,0.08195525012045915,-12.587419926794343,21.49893265779271,-2.9370772223969577
2796765,0.14799661858699228,0.09489689557986333,0.03704474742742782,-15.96181591010833,16.651416473151087,-7.239386992254659
2796787,0.13124401811993727,0.18679235793602617,0.009714574760293589,-14.229275110084728,12.513458911237878,-16.703222309881948
2796809,0.09733292587773092,0.20183311766666553,0.0011979441581887978,-7.130589230859588,12.216069448896336,-26.604363878425435
2796831,0.070528002940095,0.14167424369981194,0.002049056224054496,2.679567123247296,16.42230894321197,-31.620501401031557
2796853,0.06312323174379623,0.04918725223187155,0.0025722987284252123,10.90813561001277,22.951237292378984,-29.84716786229461
2796875,0.07102712821547426,-0.021252267352267023,-0.0006561016874107504,14.316910276321721,28.768902510869847,-23.908687544202934
2796897,0.08436483215277674,-0.03561569037345312,-0.007259969981555019,12.901670915107879,32.28676004795519,-18.249690488987483
2796919,0.09745239099910265,0.002545488600072583,-0.01712966981627936,9.896106340418646,33.97415273969109,-15.379522046197964
2796941,0.11021973591335767,0.05423958051210421,-0.0292823939237743,9.460041124349996,35.294821403613184,-14.535131382237353
2796963,0.12615516402601776,0.06726311361071992,-0.03952672371981622,13.465775190054208,37.27840378342743,-13.339851625888441
2796985,0.1503730051873878,0.012437211229354728,-0.04345390538083546,19.661707793128194,39.67065640442616,-10.240805203280452
2797007,0.1849161477109781,-0.08941005236045096,-0.04190524586912557,22.988816595279584,40.951160520212845,-5.611910161430044
2797029,0.2228372745864005,-0.17792759520245616,-0.040904750719740667,19.48499374690901,39.32979499236763,-1.2456821816295285
2797051,0.24979628432596132,-0.1998064988866421,-0.04545485783117144,9.626872662380338,34.32968794670949,0.9446427365268731
2797073,0.25552327312227574,-0.15085354174154064,-0.054693524819279124,-1.8760804487021716,27.675212678773146,0.2739188820811203
2797095,0.24379410311982108,-0.07420837693161897,-0.06325031639830202,-9.559579777868517,22.356863958009768,-1.9727540250040898
2797117,0.2294143268380363,-0.020133013016842928,-0.0660543292354355,-10.828735062417472,20.438938624459418,-3.228158300927807
2797139,0.2259047309893148,-0.00818236950167708,-0.06185472341222743,-7.050514740701815,21.591499813223823,-1.7941461344707914
2797161,0.23685367875932545,-0.022131003708706243,-0.05344935287873048,-1.9342446888439653,23.627285398376525,1.2961008667246317
2797183,0.2565201533764705,-0.03331051942652666,-0.04481008005743325,1.2195357872008779,24.326673679602518,2.8795620646522004
2797205,0.2754985835912843,-0.026736295205586406,-0.03748484217204303,1.5160330264030764,22.86983178412419,0.5550270881392212
2797227,0.28691394512769014,-0.00822178587493945,-0.03044492661877076,0.4597385109301794,19.963604831891704,-4.960485294943804
2797249,0.29075699575457314,0.009027555979782276,-0.024089993940321568,0.1872150851173576,16.960887679289087,-10.381690314972532
2797271,0.2928454021465738,0.019901859513143313,-0.022503414659963916,1.6936350546489782,14.813919568827995,-12.596276275758413
2797293,0.29760234877270025,0.02688228954532164,-0.028746299275926354,4.575825177090692,13.583585091676772,-10.899468704071522
2797315,0.30220201474056935,0.027750547235948934,-0.037830865665944825,7.9346593459606565,12.746381332849259,-7.049832932241607
2797337,0.30059641272225346,0.011735133274501762,-0.03753162953947173,11.02478942039184,11.915866580542414,-3.609896226585904
2797359,0.29336433196935685,-0.028418156538856303,-0.01866718255045963,13.155484676434703,11.258117191167887,-2.044864987969024
2797381,0.28972481559447544,-0.0836215695138081,0.015671107294346592,13.444718475553568,11.218544185833874,-1.960946781233188
2797403,0.2973374960708236,-0.13066152670335335,0.051972003190291695,10.93803677044791,11.907740655950798,-2.1076049883731702
2797425,0.31231724255425797,-0.14679977020137114,0.07708829057224333,5.242009355665522,12.827528052193866,-2.1220309578201872
2797447,0.32294037998413694,-0.12322674278622103,0.0868903010251649,-2.3046715105469557,13.19411922625813,-2.7570768199003077
2797469,0.3238864511001521,-0.06900703374002543,0.08501729765734181,-7.773486287946589,12.46690406324427,-3.906080342962224
2797491,0.3243611955092036,-0.005968261669114859,0.07484918903825963,-5.98572851854131,10.527192322586865,-3.1422023750115504
2797513,0.3390903394818609,0.04131021643288047,0.054897841849575975,5.535482269123799,7.342021986616537,2.1969996907191174
2797535,0.3700785963468973,0.05568499342818673,0.023232862569708267,23.306424367310502,2.5528389234244164,11.000853844686523
2797557,0.3992616244168487,0.03325963467369328,-0.014944215083168887,39.43278567827136,-4.239412475581897,17.786336978555507
2797579,0.4026566308485945,-0.01725306145691216,-0.04687207527982954,47.271005896334934,-12.379958028931945,17.419344436140467
2797601,0.37255742692776506,-0.07969592964102944,-0.06073586114647302,45.743608347151486,-19.53292287332117,10.270134784124911
2797623,0.323945465079455,-0.13678835078278354,-0.05437163774927896,38.54635951185356,-22.853798710080078,1.9697742349428018
2797645,0.2800037131945922,-0.17534378759786015,-0.03578985584119024,30.089105366948615,-21.16706417032687,-1.8880368793262114
2797667,0.25517183047901293,-0.18943660309438706,-0.016238184595545893,22.519780735286357,-15.845132545870886,-0.40622060506558055
2797689,0.25135818387016917,-0.18182600159639445,-0.0026103823089184725,15.83653515091979,-9.576111619221585,2.8972703739078103
2797711,0.26309755122911604,-0.16317368053746714,0.005358114696985845,9.65866841789149,-4.545777329821563,4.097844870943533
2797733,0.2814500880220888,-0.14637585771052836,0.01210684176810549,4.281612272607803,-1.6264618810102378,2.173831026724314
2797755,0.2963355414723641,-0.13719615660406628,0.020647192342707,0.32169624100055993,-0.6012818973268182,-1.0788296101455146
2797777,0.3011171541005438,-0.1306479679802052,0.029691653710030554,-1.9664769376181697,-0.6930070165373999,-3.4507497309240933
2797799,0.2965897254218119,-0.11976857273519269,0.03618694704548876,-2.728724517315163,-1.0485414814531397,-4.227896527841778
2797821,0.28897021699163944,-0.10768042053781329,0.03981663572928707,-2.193155794006537,-1.125195452393688,-4.10194496459538
2797843,0.2836238788945682,-0.10681911766168702,0.04370850820791532,-0.6984137351929318,-0.8205019047024368,-3.8664407006974315
2797865,0.2815454579683426,-0.12407310363387512,0.05032430411885043,1.0470278689505244,-0.27868777877799855,-3.5542259256112487
2797887,0.28118549048534486,-0.1493783418500967,0.057509817854016834,2.175522952793981,0.3649228603246523,-2.7167421257414035
2797909,0.28153316707176296,-0.16289162952550082,0.05964914440624997,2.3962228443047255,1.0258065000584529,-1.2069765199911353
2797931,0.2826862087905202,-0.15433903522276204,0.0530583074351581,2.365087192342552,1.5841219429563178,0.5069633992644158
2797953,0.284784132493017,-0.13363707595395377,0.04001771354197805,3.027405762893857,1.9216204544757358,1.7606625348849596
2797975,0.28755696785951584,-0.12124615210621476,0.027249463967226637,4.5278469401448715,2.057769570247967,2.2856078789230714
2797997,0.2905741690212465,-0.1285507195144282,0.02036721674345057,5.9129068663304025,2.1303405318875033,2.3175366998138514
2798019,0.2932273671031324,-0.14840338004368048,0.01980487275772114,5.982308053183976,2.185850386932427,2.1938129384871963
2798041,0.2946117965948184,-0.1640713003049763,0.02189310010389397,4.392201847031841,2.0794530615069236,1.9939881929279557
2798063,0.2940768277955346,-0.16556670710301463,0.023211020210412117,1.9580850893859314,1.67466931594977,1.6269203782967265
2798085,0.29202065374262876,-0.15653135672056034,0.023337090128635996,-0.009828429522648952,1.0856409813520183,1.132020090550806
2798107,0.2896209498733623,-0.146750865376227,0.02373815476137557,-0.6972187517076948,0.5877175249328764,0.7081551654903491
2798129,0.2875640448938553,-0.14060971286599883,0.025084375696273368,-0.3416540320065232,0.27888994450833765,0.4402196898850063
