timestamp,ax,ay,az,gx,gy,gz
2057279,0.005848006115435889,0.0016097885941207333,0.003038424973011131,0.40196250863202565,0.011728808686886867,-0.3705748911912341
2057301,0.0016120959189188707,0.004693464913956223,-0.00044470248853235536,0.4359131797019402,-0.5863605518853268,0.460251940210787
2057323,-0.001735934267812223,0.005079061065867113,-0.0024869286782735786,0.5011056197121156,-0.7725161470040717,0.7104038878066571
2057345,-0.0027751399144838413,0.0018885475105459315,-0.0027323863551488446,0.5406774063855291,-0.468307568297063,0.3189153966242663
2057367,-0.0010920875528946002,-0.002974488727883005,-0.0017811277589201016,0.43278138320214377,0.031669193814536284,-0.24800676172437136
2057389,0.0012149511097585732,-0.005938897456298137,-0.0003727059502898495,0.1190067138446346,0.3532628369201899,-0.4945979949942252
2057411,0.0012429562828557015,-0.00495797842585681,0.0009926105389980028,-0.2762267011181865,0.3906008742413401,-0.33856469604777134
2057433,-0.0012432554100814258,-0.0020458867991161164,0.0020305570757028144,-0.5022515913719341,0.3484436229780818,-0.03900294184567828
2057455,-0.0031647411858942275,-0.0015574330875135379,0.00271449480634819,-0.4495234674745137,0.4378914575707786,0.1819556103862138
2057477,-0.0014413161096882969,-0.004430245472439154,0.0030249664793975807,-0.3821607770788714,0.5884182218438234,0.2820436224278239
2057499,0.0036887016525230837,-0.004386270482965147,0.002241420033733621,-0.7719474085866016,0.5254408768718895,0.2205951115868041
2057521,0.00904805056103225,0.007583167369338267,-0.001034275390367174,-1.7326157581554367,0.10876906984985862,-0.1315829632752365
2057543,0.011781180397030005,0.03250745661028787,-0.007263956501266107,-2.638331204596944,-0.49236746171951185,-0.8028456191681186
2057565,0.011792882907654149,0.057823099993325626,-0.014392887758035322,-2.53891792894813,-0.9859843661584412,-1.5732779159166157
2057587,0.0109766231021983,0.06593487613820806,-0.018805219713983752,-1.155117899297772,-1.261563975827608,-2.1731122316114213
2057609,0.010378951171862284,0.050910387579202694,-0.018405507753983055,0.6098241657167236,-1.4678824601866138,-2.620070598243826
2057631,0.008735046437470164,0.025252549993768962,-0.014326455622533412,1.4018832506089156,-1.8049703775829264,-3.2291961204443873
2057653,0.0042301613189585675,0.0071018167027680785,-0.009074594903502358,0.7662930774448845,-2.2703099943995966,-4.199764193577682
2057675,-0.002761491848407717,0.0009495691832714372,-0.00336595551326708,-0.3828513935924555,-2.627710887991748,-5.2301061802434
2057697,-0.009485598947575008,-0.005393857842383665,0.004092710400128549,-0.7951474392519167,-2.616262382819138,-5.649957245789092
2057719,-0.01304815048382413,-0.02291016829463772,0.012924874704933313,-0.3116952151155176,-2.1595966044194186,-5.0223009820562154
2057741,-0.011825501338522188,-0.04361213686243061,0.017920126523104846,-0.09001661919284362,-1.3953819638308254,-3.6539000544793856
2057763,-0.005106154628686275,-0.044609658246860785,0.011613279003257428,-1.4234836684354397,-0.6324177875939327,-2.5302797360158396
2057785,0.006328165003860654,-0.009071386064340131,-0.0083351893440702,-4.518109813169785,-0.37641872121537384,-2.7440917396515565
2057807,0.01806949967339373,0.059709367375481985,-0.03435977161957222,-8.38367101746123,-1.2437165309711034,-4.889289791673807
2057829,0.022723320097444086,0.14226982123591603,-0.05261349247535854,-11.513581505948256,-3.5202709356274644,-8.810221622158009
2057851,0.015870514926193274,0.21419388487777902,-0.05265395082477561,-12.446933389442144,-6.6568713616231925,-13.766994664537325
2057873,0.001748095624500885,0.25336169915180995,-0.03513736762743701,-10.133314160995436,-9.369219833257407,-18.811698317396697
2057895,-0.009441362688222422,0.245338553014076,-0.011179096053140714,-4.534520433185504,-10.480143087197348,-23.09791927294466
2057917,-0.011608321417859408,0.19085524593903286,0.006143353334590981,2.79118138437117,-9.779363601427558,-26.05491832646989
2057939,-0.009339517027643691,0.10961973113714472,0.011244180709516624,8.989652206982132,-8.106279443978849,-27.605519868925295
2057961,-0.012790836044996872,0.03281289193837909,0.008480175329477512,11.349141150966414,-6.623165189175972,-28.376713196557326
2057983,-0.025602375290105117,-0.012651729840128176,0.0054864911700011265,9.001120392425001,-5.929705078786078,-29.351456796218606
2058005,-0.038769675693169345,-0.017014884648135883,0.004197509407053133,3.674405659136947,-5.7265137359575915,-30.714319200968298
2058027,-0.038566825845517225,0.009214474799266029,-0.00013298439647066636,-1.1031624288121544,-5.29079052972453,-30.942379661831527
2058049,-0.022299028824102857,0.04165832366944625,-0.010077101769824884,-2.0951705373900436,-4.338478893192591,-27.7492083803967
2058071,-0.004443701444121466,0.05578951756140889,-0.018953651090954603,1.3764008176218079,-3.377552362148465,-20.723598546374504
2058093,-0.0032735783933945,0.04274202255528328,-0.016843949331446853,6.742932668664314,-3.0986756901949692,-12.895188898443973
2058115,-0.021444391402473718,0.015368224767174808,-0.003491898106655074,10.187062142634726,-3.4763657518594027,-8.677404617333515
2058137,-0.043322835307397965,-0.00358048173586933,0.008841785741833214,10.000770532272428,-3.6570200203882686,-9.615883314416374
2058159,-0.0512322309730653,-0.0012110912492333716,0.0068347278068300035,8.099884080759722,-2.799898183809205,-12.59632897234202
2058181,-0.0409434600808103,0.016569187305528296,-0.010857603780068018,8.097729395171772,-0.9989668225074805,-12.837292929342691
2058203,-0.022532102458769784,0.031468658282637244,-0.030832793239959785,11.949990735072918,0.635945594088639,-8.467015637432267
2058225,-0.010849910997904916,0.025423841630777856,-0.033837838269918076,18.27436224910573,0.8988469258326532,-1.9418171346895992
2058247,-0.01430407526867368,-0.006202597551287098,-0.01051938892808475,23.30956473152654,-0.35041006359129206,2.377979349930361
2058269,-0.026977425995215357,-0.04541972385082669,0.026586188907274374,23.524094170162112,-1.9508339686192735,1.5133173906927557
2058291,-0.030914924475545058,-0.059663869301552125,0.04897243375828574,18.407394706733925,-2.562590592053096,-4.287611201908714
2058313,-0.01256103621952381,-0.030839309153703327,0.036858959343496894,11.568904670594275,-2.0841046261279166,-11.417447277772501
2058335,0.019349135564548828,0.02098876978150763,0.00024327056529861962,8.544398162382144,-1.7675670051233736,-14.632546795847764
2058357,0.03656303103416589,0.05014680993661872,-0.027739834362907428,12.34216320349365,-2.824837579881678,-10.725477717873716
2058379,0.017321439035524865,0.02494719980832905,-0.020343474522929044,20.628875181882066,-5.076580461032103,-1.9990552970502302
2058401,-0.03055247363058817,-0.047987210404885676,0.020242710464901406,27.41545512792115,-7.080344893866671,4.3524250442138985
2058423,-0.07516490294202538,-0.1358888239851756,0.06770213193139349,27.661626008890643,-7.419978048951395,1.8794919576436313
2058445,-0.08924096240943835,-0.20687480790374393,0.09489312605313394,20.60704553547262,-5.760557905185204,-9.302662765642783
2058467,-0.07216014913088187,-0.2446615027269694,0.09260272025672749,9.56265169876182,-2.869532294808789,-22.527605077312977
2058489,-0.044613167403195195,-0.24977923592319579,0.07069368285620568,-0.6916719737494588,0.10987644543294914,-30.4453359561113
2058511,-0.025267229071204288,-0.236333764679214,0.04580722625435114,-6.595792769493486,2.3941013881394424,-30.585726690762627
2058533,-0.01605280853976096,-0.22307367232420014,0.02856512548189364,-7.234292912077139,3.767590164344591,-25.57095749867387
2058555,-0.008850450064189958,-0.21895618529181327,0.019847983324487208,-4.196727140409745,4.29635306643997,-19.256146824753948
2058577,-5.650755894243001e-05,-0.21700506731057947,0.015601546042800049,-0.19038578728048605,4.041401606359043,-13.598213582536705
2058599,0.005764258142665936,-0.20541363083041578,0.012842647256178537,2.632057846576174,3.084074004050828,-8.66835414103806
2058621,0.003394461614682517,-0.1819022466501542,0.011350234019039982,3.4643244032878586,1.657335855919186,-4.300300705518898
2058643,-0.006881890256185576,-0.15292113163016108,0.011460569710195248,2.511398272239511,0.1280297081451035,-1.006337352534973
2058665,-0.02004043191711339,-0.1228424688443284,0.011964902275625638,0.4201564115323755,-1.107034632414036,0.47156233945122716
2058687,-0.03011279312829808,-0.09213050513439515,0.011037663621504334,-1.8343075648675264,-1.7119495473253195,0.12216286767299622
2058709,-0.033638283924951495,-0.06572494519153495,0.008839667326856105,-3.0626580191829125,-1.541244814643042,-0.9372952269217917
2058731,-0.031807372262568814,-0.05463319348161923,0.007885442373307782,-2.5637135281819323,-0.7604861497018245,-1.131020001616076
2058753,-0.02947306499432063,-0.06493918520237632,0.010306969098342257,-0.8665853873281499,0.23918545247963433,0.3372196915324039
2058775,-0.030602628627614942,-0.08888019879774957,0.01556407463365695,0.5005786287353207,1.138357902282193,2.8623732087952822
2058797,-0.0341192014514075,-0.10986598509982524,0.021118562616888943,0.16312209980535253,1.8956628012507069,5.034010309770305
2058819,-0.034676578944401425,-0.11472594639991585,0.024272006934600857,-2.105587175924025,2.62719843864124,5.767587865753582
2058841,-0.027744559557719203,-0.10067547963914417,0.02301766443839172,-5.300606334699158,3.3205506440332218,4.9047080707096145
2058863,-0.013834303532102705,-0.07458689413690928,0.01677484285077195,-7.845953453841901,3.734810989415888,3.015798017996882
2058885,0.0017943914819107316,-0.04879689428907342,0.007817072688407978,-8.477649510790634,3.5836543979674227,0.9122188512766591
2058907,0.012690985244590914,-0.03506492403095626,0.0012568051927694293,-6.936129956640823,2.780268732701499,-0.6827445458572139
2058929,0.014632461060998811,-0.037757227308344334,0.0017658261048590835,-4.117799445896361,1.5302947904562814,-1.317035795784956
2058951,0.007295298786299394,-0.05113110730412876,0.009327449393540545,-1.5176892131879878,0.2656980878806092,-0.9778827783385199
2058973,-0.005574925707188622,-0.06400446534600208,0.018321511898164434,-0.2895256000701856,-0.5112100446178687,-0.10336996748373503
2058995,-0.01766729267173469,-0.06790122365573775,0.021523909909606207,-0.5812164962831782,-0.46140489107660615,0.7623142196697802
2059017,-0.0236344971003038,-0.062012762004429664,0.016146028009549975,-1.5782696590020242,0.3455848951942052,1.4318255357102139
2059039,-0.02256010095747741,-0.05212364086231264,0.006470959951027279,-2.1872545888120443,1.3949385322939571,2.0979092185606074
2059061,-0.01776621454169857,-0.045227129923641404,-9.736779463103567e-05,-1.8648910105490475,2.044565903487115,2.8404847723788875
2059083,-0.013055026899990115,-0.04430685285391614,6.792749535817279e-05,-0.9313138404790182,1.9790781538126645,3.3061805487101026
2059105,-0.009926572039783074,-0.04750510525977057,0.004411242038976972,-0.10590130853312972,1.383054378963918,3.081395559955542
2059127,-0.008319236328819863,-0.051389171173451646,0.008245445985677355,0.2159040564246934,0.7016705072236392,2.2718502962254536
2059149,-0.008193270985929093,-0.053924875440184115,0.00947931932990067,0.19944410664725143,0.2685761678781074,1.4636516623905458
2059171,-0.009294132066963062,-0.054647180578148914,0.008974674361595892,0.22308341989237457,0.12898747298765173,1.1055468847773005
2059193,-0.010587578701066823,-0.05383423460540127,0.008152359202855225,0.4691425172711326,0.11963285485766521,1.1118252453491262
2059215,-0.011395364008635816,-0.05258276956108691,0.007788882581683117,0.8521887555959794,0.05201788540620972,1.1053954436452846
2059237,-0.012735579735110743,-0.05285315374670776,0.008481227608005534,1.2013501741119312,-0.16545536919511408,0.879925819701961
2059259,-0.016339204630322905,-0.05618619798012512,0.010770649348347604,1.4284884930303865,-0.5206560265091469,0.5112911172911683
2059281,-0.022193252297185027,-0.06206489885188163,0.01437640972172948,1.5646190395501274,-0.9511318307828609,0.1231253266776518
