timestamp,ax,ay,az,gx,gy,gz
2099409,0.001002525060481822,0.00032692115942424955,-0.0002775272483321906,0.13624354606001426,0.19673543706268026,0.3941458784155916
2099431,0.002161077896248213,-0.0009434573786709317,-0.001712888763693705,-0.0872686764947125,0.19115806322166826,0.08198126837083808
2099453,0.0028826686685735564,-0.0022137976297219994,-0.0023471831672948955,-0.14154310267821285,0.15559211566530304,0.20053595200482016
2099475,0.002822228917428454,-0.0030738164548879477,-0.0018221103171999894,-0.042918656443929726,0.06931819454021321,0.6433317749912376
2099497,0.0016994962236344133,-0.00233689133731171,-0.000409452032287336,0.02515311929335031,-0.06297168050645552,0.8469536393505858
2099519,-0.000500273370179189,0.000929344361056741,0.0011818046143391478,-0.06501892789166716,-0.19274330765591674,0.41497063512893023
2099541,-0.003010919649788671,0.005306716406784069,0.002218161180448614,-0.2127655580838181,-0.2414271237647212,-0.4141281034483383
2099563,-0.00435619562199204,0.0070920508901623,0.0023277646711415494,-0.2036717928601543,-0.16869686851349644,-0.9876081529791485
2099585,-0.0035672098884114885,0.003911683491703286,0.0016506843407578008,0.010677042282444362,-0.0345442700298849,-0.8944943821928887
2099607,-0.0013432861638569794,-0.0019287731832201877,0.0005725768222174898,0.2293630270077978,0.029985107463117736,-0.32647462239049313
2099629,0.0004059377169081415,-0.004873167579016411,-0.0007693213713315711,0.23374437182778784,-0.07345322340784428,0.18984911438501187
2099651,0.00032477437712815824,-0.0013676427705542763,-0.002510614856965225,0.05010977623807279,-0.3319305105499365,0.29591827109280944
2099673,-0.0011342460994735373,0.006480016160780992,-0.0043573928205880635,-0.06742123029189552,-0.6267527248639023,0.0067928015047937235
2099695,-0.00223344338445853,0.012553803029960339,-0.005108698336369438,0.09450768701161838,-0.8091620221276202,-0.4360574502824796
2099717,-0.0017442983658329065,0.012103903889826465,-0.0034507213153921593,0.4858068923263547,-0.7979847581581375,-0.7806856457285235
2099739,-0.00016522740541088433,0.005703445905898726,0.0005234172733633341,0.8472147405401073,-0.6253058152523542,-0.8829114079924222
2099761,0.0009609166604896917,-0.0017658191937640012,0.004785761462822684,0.9694292841551186,-0.3781596941824143,-0.7459164287099997
2099783,0.0008328310344397772,-0.005342277255773601,0.006581703619588561,0.8626657924904478,-0.10358475389259623,-0.4993037945507801
2099805,0.00017069159000035244,-0.0028187467299229745,0.004322402892448341,0.667197166297047,0.18332392853848625,-0.321267018455358
2099827,5.1167355002626735e-05,0.005369520472749968,-0.0013096161991991205,0.47492722468671994,0.3904570016752092,-0.3658522126048062
2099849,0.00022422418099080795,0.01665364514204331,-0.007588819734037878,0.33111763687108753,0.3361340766786335,-0.7235907323888063
2099871,-0.0008118046329572086,0.0257243116378613,-0.011094994902229127,0.3786728066716343,-0.053167217673410413,-1.3367501957392156
2099893,-0.003606686126236455,0.025736994325634123,-0.009844120864869329,0.8111180635948156,-0.5562727102245998,-1.9011829756952434
2099915,-0.0059951685449413875,0.014405898068809844,-0.005382343280053594,1.508650374305898,-0.821753000794967,-2.0351716247996765
2099937,-0.004715096470441531,0.0008299453168951837,-0.002823439723624122,1.8062251082894716,-0.8237113215963351,-1.7954423624868119
2099959,0.0003264282762734825,0.002701276143717701,-0.0070321634229057435,0.9801153139728784,-1.0546795348609663,-1.9659679406968817
2099981,0.003920911044135023,0.03049400607553318,-0.016935843126189547,-0.7690371145118694,-2.0537424851563575,-3.460497998539551
2100003,-0.0007315621580862317,0.07242220434538682,-0.02413394784699005,-2.0154664137768132,-3.6708789976710663,-6.202025083295169
2100025,-0.015165122391218727,0.09960044435055852,-0.019479891439240195,-1.2778701624247617,-4.95309705070477,-8.785197508511937
2100047,-0.03296939475163129,0.09126544192051539,-0.002143318738389805,1.3324189395404331,-4.93201841514586,-9.58034593498763
2100069,-0.04466563245756154,0.055082202544057685,0.018637822093100193,3.9674587780399517,-3.4934090675405916,-8.218565228217855
2100091,-0.04487225653171881,0.01996079637620037,0.031075209007352743,4.852370225376469,-1.3575006462966739,-5.8651618273532025
2100113,-0.034829452209673914,0.008451705479498552,0.02978191497399898,4.0352532629858855,0.6680916698625151,-4.202881946139927
2100135,-0.02028728627419778,0.018139891615010447,0.018509249120421924,2.9597683301485023,2.123814714518675,-4.494227171639253
2100157,-0.008486657321376987,0.03075851144725807,0.005641203245902695,2.4665609241927915,2.6658452065346716,-7.3919987351578875
2100179,-0.004926484005273273,0.03585356378163321,-0.0031756704098326403,1.9606465570441882,1.941405034492181,-12.673778177729087
2100201,-0.010368162028363008,0.03947649645153465,-0.008233863622627985,0.9217323423030295,0.05834400605343923,-18.572534808937174
2100223,-0.02113063668930044,0.04910835515479386,-0.01144770718221736,0.43707308896004926,-2.0617919436480645,-22.188148399257805
2100245,-0.032544955922787694,0.05834440464984929,-0.010995282030048166,2.061188116822709,-3.2295749811679872,-21.925668613076176
2100267,-0.04105879417464191,0.05414741572817545,-0.003643079434902727,5.195900448098979,-2.9881619147338596,-19.66391414520629
2100289,-0.043792777086319325,0.036477745184344545,0.008156150971472754,6.876238673959954,-1.908144242081775,-19.31653404854689
2100311,-0.03882997293833365,0.021777232285116768,0.015843271450455537,4.978930164254914,-0.794751593610179,-22.459473337444397
2100333,-0.02687258804092781,0.02317282717853849,0.013799018695865535,1.1087956847372653,0.2766001749211594,-25.977076940257888
2100355,-0.011330322452047941,0.032113248970374694,0.00687415322155145,-0.6450872563039043,1.9141167068246978,-24.95910130018233
2100377,0.0036468083804332883,0.02696120916893684,0.005886156682823594,2.003808792348213,4.340253805327069,-17.912827600525063
2100399,0.014541286453664122,0.0016360354647269421,0.014737028303674665,7.06433193473193,6.607010650628534,-8.47211308925462
2100421,0.018553979330642723,-0.020549004207676993,0.023872991527885076,10.538178109829197,7.205837500667206,-1.8438989151154481
2100443,0.014297881869731001,-0.010728370641044845,0.01990939014019402,10.912396296110082,5.545625407659168,-0.12747614946879016
2100465,0.0033367201351945843,0.026645757306684618,0.0027886208047030164,10.648176657527467,2.6741483416120193,-1.3075906461737223
2100487,-0.009577638095930015,0.049594124224559444,-0.010831241069727816,12.911335202745944,0.43463528823371994,-2.08811795786814
2100509,-0.018641487725670165,0.022187022413443332,-0.005467789183641633,17.567185830878138,-0.04636337194683382,-1.0073761419353524
2100531,-0.019927555249032683,-0.04490581768549145,0.015005165478414075,21.28722681891041,0.9404875949255895,0.819103146626934
2100553,-0.012879099919905032,-0.1083119749413335,0.03257772131445242,21.256126140497955,2.263929655786437,1.132817928306053
2100575,-2.504105150116906e-05,-0.14028221857379186,0.03625921147984449,17.652652972464775,3.0113432462400174,-1.3451546570391442
2100597,0.014047665508804518,-0.14962120160554965,0.031348399200002076,12.45878580896315,3.0505457740264554,-5.609228273557947
2100619,0.024850249978988288,-0.15793891096306453,0.028093235025689733,7.136545203255025,2.8515887158156032,-9.077099418741268
2100641,0.031786202156548544,-0.1717039272433632,0.02838287250796589,2.2054529672454657,2.938571878491613,-9.939177921959772
2100663,0.039404080743871917,-0.1822372551775996,0.026649309055092153,-1.781100570179622,3.385844368667538,-8.66516965548439
2100685,0.051322345434197725,-0.1809893578220161,0.019155472343554986,-4.007791760734178,3.6788121354737897,-6.861454495464355
2100707,0.06287105960921162,-0.1668681878475329,0.007905105078800321,-4.127926867063645,3.1674486860231137,-5.19038066818843
2100729,0.06477240835909191,-0.14504091641163644,-0.0030343476957183937,-2.5844870462511214,1.8184562063908731,-3.267377126803001
2100751,0.05550873432574627,-0.12476030539303967,-0.011456249952408027,-0.1560844141229702,0.38736405763299336,-1.1556920220241085
2100773,0.04448441066858812,-0.1142311208562358,-0.017116410780486917,2.472094071425726,-0.35887847303736853,0.3590738359356215
2100795,0.03990317602797608,-0.11343046834474474,-0.02003261865408508,4.809499485140691,-0.46266947289464616,1.1044205974420376
2100817,0.03833357675885987,-0.11480951328705088,-0.01953278503980938,6.624518082074585,-0.5937491337049984,1.985042680515835
2100839,0.03065833415071729,-0.11250848833591776,-0.014757391521869792,7.88557689819678,-1.1655936493214234,3.6396516681974473
2100861,0.015379940770292934,-0.10719639785081166,-0.0062028767418448715,8.441534561534406,-1.9145265400994587,5.385070787581613
2100883,0.0009826757906834917,-0.10145556814694151,0.0035028887784409003,7.9463211342756015,-2.3317840209178793,6.078822020071653
2100905,-0.004571700901562766,-0.09561730900434781,0.011281453627418971,6.365690340664078,-2.2229262581393696,5.624982418738545
2100927,-0.002382465116663264,-0.08995104069817578,0.015973360626901852,4.34961591350987,-1.726285084143655,5.001994195774431
2100949,0.0010573200372527704,-0.08631229590113444,0.017946903828729027,2.7402074609172122,-0.9921828829819691,4.881452706138346
2100971,0.0029433587548712416,-0.08486338060791329,0.016734851081724265,1.8079186808837104,-0.09022679984680515,4.806088720452366
2100993,0.005943762969710979,-0.08238116936541365,0.011123486747861745,1.2774164428320978,0.7811399900545702,3.9615173715994825
2101015,0.011621540471006764,-0.07659906414222607,0.002290202330829927,0.9961779311726399,1.2283994075743279,2.3801653730183965
2101037,0.01602346923439108,-0.07034911737129981,-0.00491134313597264,1.2000966687070922,0.9853826219411735,0.9961924034450511
2101059,0.01374937693159259,-0.06895483708288691,-0.005564717488636085,2.0508173627947976,0.25983820565101834,0.5809489616562519
2101081,0.004646924663284513,-0.07406174358242842,0.0003955414366091814,3.184067545579605,-0.3694196171090739,0.9266818326561747
2101103,-0.005478683487686459,-0.08166177941086016,0.0077562012045539926,3.933045346045904,-0.4117889248105266,1.208697581661512
2101125,-0.010313234516913315,-0.08630609876647165,0.01092898600023882,3.9607664387434425,0.21405925978392581,0.9882464508295574
2101147,-0.007917200222622557,-0.08595534092747505,0.008947322670673651,3.509090990204139,1.216044326894546,0.6028418586399799
2101169,-0.0007143123052077197,-0.08188122607466754,0.005276142876131578,2.994937435156192,2.135472816411484,0.5662484444748902
2101191,0.007515118519514808,-0.07508304687452495,0.003316359032173884,2.556239345173374,2.54905186370014,0.8825941594386318
2101213,0.013934715841716587,-0.06517651740103139,0.0031897467911855015,2.1635451369899483,2.2536007870352393,1.1422664813645207
2101235,0.017144060907534984,-0.05357963207604048,0.003015871858053098,2.0413979923238164,1.3802523879424862,1.1184129321213503
2101257,0.016800774935881356,-0.04607116551298029,0.002224958346206871,2.6477205243010316,0.3121801369243683,1.0093399398803051
2101279,0.013292132297248606,-0.0497030009183953,0.002591550967493641,4.076529986777231,-0.5767721457662993,1.0850902225398438
2101301,0.00768196582493421,-0.06611431858538717,0.006036324657147902,5.646197298898967,-1.138494059152882,1.28652520887026
2101323,0.0017012463645690924,-0.08879003080657645,0.012145447819693971,6.3366526427478185,-1.4259960821618418,1.2994468892288438
2101345,-0.002285583988161811,-0.10794849767893322,0.01816527287288774,5.679002983186161,-1.4921714569462767,0.9538320113653201
2101367,-0.0015216911356614805,-0.11780396258455593,0.021023486219814407,4.088075752710586,-1.2681247765648072,0.40941119573866047
2101389,0.005742824399740202,-0.11892702630063857,0.01936282169195844,2.3116506621508455,-0.6689750465336874,-0.06355854996350141
2101411,0.017976094801249197,-0.115401568695067,0.014447849966894319,0.7018015329091036,0.21371201611773288,-0.38461781732220357
