timestamp,ax,ay,az,gx,gy,gz
1980015,0.002209848070548162,0.0012493982013766984,-0.0005864572030642607,-0.35242172158154533,-1.7822829621613192,-0.4067537142362424
1980037,0.005600569845759449,-0.011630146100252889,0.01107321917268321,0.16070004153725875,-1.0692057016655767,0.5952567162491995
1980059,0.006436003182083,-0.01743737168751492,0.016371327221251914,0.28608175027142596,-0.48319563840454693,1.1121771344085927
1980081,0.003817748566142293,-0.013098413759088186,0.013130433150358807,-0.007864951798656785,-0.06970173540474638,0.9828330637596769
1980103,-0.0006795884684690044,-0.0012299892574942546,0.004131850205567736,-0.4140418388410785,0.18082594393075982,0.4021666058157434
1980125,-0.004261459218708208,0.011513384683828792,-0.005499321684087436,-0.5913990981539918,0.27876867139861194,-0.2920247254233119
1980147,-0.005298574896109643,0.01820903370930922,-0.011566904343819155,-0.4091108606066086,0.2899200100921802,-0.8162575294446804
1980169,-0.004021043681145922,0.01528010167247626,-0.012600076767586545,0.01636617734137739,0.4134549013734683,-1.009206880132966
1980191,-0.0011040155045729872,0.004261649714544213,-0.009897984588725924,0.40988827292226415,0.8659180548206853,-0.8424900741205378
1980213,0.0032408150558925885,-0.009149156966964868,-0.00625140438030834,0.4917056606956173,1.6050214428328502,-0.4179314784760858
1980235,0.008327370108491265,-0.018375451939298886,-0.003934603643692391,0.16821301085671467,2.2370999164550076,0.06900888742777105
1980257,0.012085865151016862,-0.019591107655045913,-0.003212241995830299,-0.36818718668077416,2.3229235861116053,0.3963800507041245
1980279,0.012269395733931383,-0.01352266759952288,-0.002669809992707876,-0.7669145404757001,1.8172951549625145,0.40719479672601616
1980301,0.008902287609622934,-0.0045133539266958645,-0.0011390202062144484,-0.8062082906830869,1.1483617791529672,0.1052035560634228
1980323,0.0049022829611736485,0.002598989831586098,0.000793059571823253,-0.5685226850962979,0.8085244547197508,-0.341452394311567
1980345,0.0034778498294014476,0.005685759039186331,0.0014413395015269552,-0.3160472636990584,0.9002690325211927,-0.7395751071248196
1980367,0.004908519098436155,0.005929040665344859,0.00011303177825253358,-0.21219177593923896,1.1407573655767393,-1.01285605724623
1980389,0.006546641197890232,0.005537647648043712,-0.00200639239836752,-0.22876307178372984,1.261569644116584,-1.1930881021762614
1980411,0.006137581342455643,0.005609788999288281,-0.0034181628682005073,-0.33528180976510885,1.2740476007198753,-1.333804063406688
1980433,0.004456996218532726,0.006465752652951906,-0.004280251611416008,-0.6540702611488154,1.3250274435285738,-1.4882231239796075
1980455,0.004282311316997889,0.008689645218179328,-0.005975214054760771,-1.2672939227700062,1.448099400301957,-1.6949580485544982
1980477,0.007285786458777573,0.012152297597623839,-0.008663381185586244,-1.880911772582881,1.5728651932813846,-1.8816615262318235
1980499,0.012367136062572651,0.014374463755571276,-0.010204582214705682,-1.9095817841681824,1.6686709869253256,-1.8538643199390572
1980521,0.01648716758517984,0.012355613065308647,-0.0083710288451999,-1.1053044573270403,1.70531244928176,-1.553878061191829
1980543,0.016560127562498392,0.007982352018319674,-0.004044070536489591,-0.02545217843538094,1.5285300873988064,-1.3332995433277535
1980565,0.011350201987009968,0.01038411758711582,-0.0014866632118850707,0.41330430359093456,1.0041340101527503,-1.7546039568680092
1980587,0.0031260360472592343,0.02906031185417195,-0.004781747714924349,-0.002429039820539665,0.34037699470178434,-2.9622706266665237
1980609,-0.0023961238647042566,0.06203698083639189,-0.013620536725527927,-0.31621782298254625,0.06014024228840031,-4.326263375701216
1980631,0.00029371501782571215,0.09227355110643529,-0.022579460688628424,0.7581587579036908,0.47875969386421374,-4.894444716057036
1980653,0.011057226489521772,0.09968198441701279,-0.02515431453866768,3.435618525451063,1.2632490045534257,-4.317531034969859
1980675,0.022635295598562664,0.07925084420073014,-0.01956784259895691,6.368031496156334,1.635710171875678,-3.34961958072001
1980697,0.02626305356383331,0.04691310900458245,-0.011026141982762389,7.6808243214333505,1.0275157276289897,-3.352270007423744
1980719,0.019562828063510163,0.02557425428057211,-0.007305072706574898,6.61017526583627,-0.4961151945292353,-5.113368518134512
1980741,0.008401508798496849,0.024348032996097977,-0.01102924312202709,4.1448460422004025,-2.3845728702743907,-8.017685795045042
1980763,0.0007691385159737201,0.03249194174811747,-0.016785119326335772,2.0269857460668157,-4.048125799386005,-10.46145456417493
1980785,-0.0004820805346890434,0.03405132981790448,-0.016865029222495085,1.1509814185363445,-5.166310863856374,-11.247230788108807
1980807,0.001097263616461111,0.02577995287077803,-0.009248134852452957,0.9709682956178123,-5.726907293129383,-10.627539815540626
1980829,0.00023179802672828773,0.01859563214225877,0.0010753000458606898,0.3153767333888278,-5.9189171680235315,-10.012062047548698
1980851,-0.004579063010110035,0.023932791758632416,0.0075158359326587725,-1.4056092234316029,-5.972750023396254,-10.69898036690766
1980873,-0.009405115394165614,0.04182753054257296,0.007137906388841195,-3.6101585231855253,-5.971017107540219,-12.720690624449944
1980895,-0.008811957977663674,0.06076650245989296,0.0020788935799986945,-4.781010714773211,-5.736757147093226,-14.58623898586297
1980917,-0.0026344754301213247,0.06600512605977742,-0.0016290927859984082,-3.4584468037310994,-4.972561973667775,-14.21783705151397
1980939,0.0015994154113514946,0.05032722766796126,0.002295181068906972,0.2216813026657672,-3.661146510527631,-10.863455380466846
1980961,-0.00447378333521307,0.02323554382289702,0.01369631836270156,3.639931673938274,-2.3958401077090534,-6.636478919218451
1980983,-0.019845492416503806,0.010142386821529906,0.021946049886008477,3.29271410900807,-2.1239801503962186,-5.512301788929146
1981005,-0.033449660406368126,0.03216215077157546,0.013878293558445267,-1.4189105733073162,-3.198599640175026,-9.466559435421036
1981027,-0.03588026925497204,0.07745380012201517,-0.009447281134044713,-6.270334224759711,-4.555557740858473,-15.444328660789223
1981049,-0.029276658652924305,0.09956539370267403,-0.02781159027316481,-5.8842292441672415,-4.217206514601186,-17.62850821014481
1981071,-0.021876696642472968,0.060833167119787326,-0.021945052947938137,-0.11932070642188988,-1.2122353320591768,-13.774319737848627
1981093,-0.015108527126475048,-0.0193195125240658,0.001350284481174629,4.743215711997648,2.827882201443666,-8.355523519044723
1981115,-0.003341646259559725,-0.07453314830860752,0.013451231775627822,2.8417544549943923,4.473546974938143,-7.936281707822451
1981137,0.01183378398273075,-0.06060816737216291,-0.0020936021191700627,-4.01432681532181,1.5754142506945166,-13.670661030349441
1981159,0.01606483031345805,-0.004162786362169277,-0.02789114100323196,-7.966816798535039,-4.294200878349772,-19.979614937777107
1981181,-0.0001572152927857938,0.03126725815807514,-0.03384479969299959,-4.061758676771743,-8.930363970658687,-21.128927858002207
1981203,-0.02288358939993696,0.018445529901703686,-0.01456939930627121,4.55645628905769,-9.41457807499284,-17.636252345413332
1981225,-0.02623607146207486,-0.014767546309848636,0.007004225720796809,11.307226941107675,-6.773274675940601,-14.899038146085296
1981247,-0.00529203711361371,-0.03536824271411178,0.01273132420657093,13.794029828777033,-4.4832905004209405,-16.495071957221324
1981269,0.01295795270148373,-0.04553371691102782,0.011130274464155536,14.600626183672507,-4.593472694032812,-20.764785083491642
1981291,-0.00021659293594823215,-0.06302840143995189,0.019595570933746653,15.992496444550214,-5.737613074685225,-23.89796361082143
1981313,-0.03898807954814387,-0.08502441798476433,0.03626893948455509,17.013388576394316,-4.970318101140827,-24.31188532301229
1981335,-0.06716314838196787,-0.09320478859463303,0.042067153082930256,16.180161784691155,-1.2084241257230082,-22.943042560419954
1981357,-0.06000698158543485,-0.08619491757698419,0.027833789872866093,14.472819155983053,3.4613161166452366,-20.66893749794478
1981379,-0.032294014406922776,-0.0855104156531212,0.007765976746579622,14.039536109071356,5.9183905790076015,-17.43613661892755
1981401,-0.0174754427183964,-0.10616924543033718,0.0015970646657531768,15.06604017195256,5.164039575328758,-13.954315238059927
1981423,-0.025449053459874985,-0.13637502574748428,0.01054330613939047,15.589880184483414,3.0537419073291865,-12.385005633718443
1981445,-0.03363262939184206,-0.1541922738766153,0.01826856301684339,14.257460064144839,1.9976157665896965,-14.0714229757737
1981467,-0.020402332353393136,-0.15486902514268847,0.013199710521551819,11.93328450132929,2.4241118183088455,-17.387994230068017
1981489,0.0060633791090108045,-0.15253288941352014,0.0019376790175420471,10.244952806764285,2.7966649436631297,-19.162194917151577
1981511,0.020070091228163903,-0.16066768065302015,-0.0010852207243803634,9.53300257821151,1.7630677025213926,-18.028792286109415
1981533,0.010922368190520549,-0.18006239650508457,0.008860336236837723,8.855753164996123,-0.3027610167300494,-15.383959142171962
1981555,-0.007542965409879737,-0.2024580524600997,0.023300455823330173,7.406170440753103,-1.9203432786902865,-13.14927629484692
1981577,-0.017418464246997768,-0.21647885067921513,0.030893372931274594,5.250007428011755,-2.1358382208577087,-11.631699249474204
1981599,-0.01680320289339694,-0.21091623475468743,0.027200644840147958,2.949401575120999,-1.236288600330306,-9.892343274569415
1981621,-0.01689089248706304,-0.1817880508115443,0.015932462633332558,1.0415557629999757,-0.13319501395303673,-7.480752157387686
1981643,-0.025354421188823677,-0.13911129120875815,0.004340082541855477,-0.1641477318319453,0.5576861997853799,-5.150523280564479
1981665,-0.03752611683948423,-0.10104317565805675,-0.002256458634349489,-0.6798657297256153,0.8498099911143746,-3.9552074286498797
1981687,-0.04263023958664584,-0.07883246308971814,-0.0033315613799084665,-0.7969686546335848,1.1127879197221506,-4.038194554148997
1981709,-0.03557137039937297,-0.07058713588100826,-0.0016385479644351962,-0.7909112161234533,1.6184597679736006,-4.487635087867954
1981731,-0.02162850200376712,-0.069514068321422,0.0005737100043110901,-0.7063079025647114,2.294111685491324,-4.3014697168409795
1981753,-0.010281105811416438,-0.07301179935392242,0.0029134781653516444,-0.5364178184133137,2.819514633338832,-3.3451509561269988
1981775,-0.006060226281649669,-0.08146534584411316,0.004831393608045361,-0.4902570474997787,2.875974238604094,-2.2931524217837853
1981797,-0.006977078386299332,-0.09206207359686493,0.004506229592206319,-0.8827877031547379,2.2885746444274875,-1.748128529735221
1981819,-0.010617377625317117,-0.09834607060325379,0.001178063849437682,-1.7576017839137255,1.0949372856454846,-1.6403096480977555
1981841,-0.0177340947658586,-0.09621871750732339,-0.002614217229523241,-2.743323898675519,-0.32132425049580826,-1.532153783474586
1981863,-0.02809337946575711,-0.08793611016559615,-0.003062662786994913,-3.3378109413550083,-1.2429959573021505,-1.2724103036568362
1981885,-0.03615995398206254,-0.07878963581356326,0.0004851234627504866,-3.3125585612452264,-1.0923011037066066,-1.1301378670419528
1981907,-0.03500098869450041,-0.07104825367708932,0.004349114092940459,-2.8293100348403804,-0.04556513909405993,-1.3537094106152354
1981929,-0.024278054104983796,-0.06343630382671733,0.004555388946829165,-2.1910641512044524,1.016940157268433,-1.8132211144876913
1981951,-0.011748688660016209,-0.056859650593561184,0.0018500847630320795,-1.5378898325260788,1.3616294594063911,-2.149593032690479
1981973,-0.006432651312688724,-0.05772631429383731,0.0019575337704477087,-0.8123483545684644,1.0989341869884137,-2.161755370579896
1981995,-0.011625484770499893,-0.07244615990374106,0.010163251069768878,0.057057406351766184,0.8740262289572605,-1.9336950925153245
1982017,-0.023916833144241496,-0.09876997781105383,0.02551774637899665,1.0361375479815933,0.9841261013047359,-1.6301971215231583
