timestamp,ax,ay,az,gx,gy,gz
2106471,-0.009424287717604334,-0.008579787312718615,0.004702757247210489,0.10857181403506977,-0.027356958588108174,0.9242514511420923
2106493,-0.0034070088282504418,-0.0010031077785743164,0.0027507635626234073,-0.6605036034561877,0.2409879885829924,1.1233044974486968
2106515,-0.0013635864192226683,0.007034174357592623,0.001740476819681704,-1.1663750621275288,0.38732469235990047,0.6209331245332252
2106537,-0.0026536327104822906,0.013568510320010057,0.0011150482765622082,-1.1649188033172486,0.4548366116092828,-0.5405492218996855
2106559,-0.0028462673855131123,0.014772813866659623,-0.0005175961287708062,-0.5650079032224804,0.5546303969061427,-1.570262284771165
2106581,0.0008419528888573864,0.00859003512777192,-0.0032408426336485705,0.3941271422177909,0.6258319325419875,-1.6870778758867557
2106603,0.00594481484361831,-0.0018962036090636341,-0.005079110131314523,1.1924590640767962,0.4233856932383005,-0.8495192365572052
2106625,0.007586147096455165,-0.009914186693895466,-0.004039896381160768,1.4156142227849386,-0.17412313307070826,0.3103181680983819
2106647,0.00418747722629754,-0.01127945960068008,-0.0005448981254762747,1.097617672453505,-0.9287381401198368,1.1498532676079913
2106669,-0.0010900327610202949,-0.007863205127202332,0.0026043354037890033,0.5274743472211412,-1.4506396368836723,1.3988124305905638
2106691,-0.004387105124253182,-0.0021025042866713163,0.0022825589102347032,-0.2162368061330748,-1.6302460610297111,0.9998345554466359
2106713,-0.005225845295382384,0.01018413128270346,-0.002879520689533198,-1.106172632802888,-1.7146594981950924,0.07531897554767818
2106735,-0.006089657927219348,0.03530731547542409,-0.011112730627900151,-1.2904552535124514,-1.8652367972947583,-0.6668897000499043
2106757,-0.008518341794030888,0.06782066868814278,-0.017638403027746184,1.1311985057332767,-1.745664224790873,0.08834383170764332
2106779,-0.010187491748075733,0.08768217277412248,-0.0180241658920169,7.5201043505090714,-0.7884988884019712,3.180100376007525
2106801,-0.006607702859910858,0.0795470495201481,-0.013259583758168495,16.481233770185433,0.9749053164643177,7.638123762976908
2106823,0.0031299791579814146,0.05473623996912369,-0.010235633821075719,23.887914370836068,2.4791055772418527,10.832095869644274
2106845,0.012328695918994279,0.0463333909347807,-0.014504105538997917,26.228179072587945,2.367712883382805,10.52923280975063
2106867,0.010714123270223558,0.07728223179544183,-0.022701332196184986,24.395144365792024,0.41806176123274613,7.119105262479116
2106889,-0.005134106402461363,0.1339724841293494,-0.024599950856580368,23.64373074203603,-1.8607880941725734,3.6811613895322655
2106911,-0.02559371972189891,0.17214883595314093,-0.013266162999230193,28.83948839091762,-2.3568277212961255,3.310253362645291
2106933,-0.033868123920855975,0.15010056308524572,0.0076780582103817725,38.98902249240315,-0.38450589509175714,5.712940167406126
2106955,-0.019351034265858623,0.06393763878972364,0.02572788047532876,46.50150804186773,2.2196796676802952,6.410304041096114
2106977,0.01238692300992832,-0.0410741295875368,0.0274810057720589,43.13601310110584,2.119710766389496,0.3840296151466066
2106999,0.04045712033103535,-0.09906659973622085,0.008413563920326342,28.319590074119922,-2.8447714111350213,-12.248603888203862
2107021,0.04264127747403833,-0.07943582714907857,-0.02138200112956657,11.624862385186043,-11.35440976636797,-24.448833381570648
2107043,0.0154166339670368,-0.02128059182536515,-0.04233322807079047,5.309456345076927,-19.01235031170067,-27.641446339686404
2107065,-0.019826897913995053,-0.004060029437910939,-0.039352515449215544,13.167043870993236,-21.737871170389344,-19.51285050401235
2107087,-0.03695870907598941,-0.0750023253472612,-0.012014525063459593,26.9186596963298,-19.167116616626252,-5.8296926613649696
2107109,-0.03231691008819744,-0.203152949038077,0.026806916470210895,33.73034954861076,-14.531588236883348,5.347479802696967
2107131,-0.026063313805520932,-0.30415977989324644,0.05922332733502845,27.046301260504016,-11.232538761329032,10.11063287029529
2107153,-0.03584245652762649,-0.31159848242433796,0.07103423495294416,10.896217807092054,-9.985372620470523,9.656638744019004
2107175,-0.055538471273531925,-0.23139045236843614,0.05865266576152922,-4.6180398793322865,-9.29779504847174,7.025215212878296
2107197,-0.06353992459485336,-0.13391542715761132,0.031635791936982925,-11.464780775833,-7.956596329356396,4.38183311517826
2107219,-0.048858146629085386,-0.09328413273213784,0.00780865738846678,-8.865912196767269,-6.417695814165641,2.7162669945601623
2107241,-0.02571744362097615,-0.12858540302087276,0.0027571631164768325,-2.425334733098517,-5.950014281049793,2.5572236800064774
2107263,-0.021637767775414127,-0.19668045704309267,0.019637608961558202,1.1570800991156287,-6.947569762783687,4.0999343275261495
2107285,-0.04964253528867817,-0.23707868758024686,0.04562009019420668,-0.7817068752620744,-8.29553483946068,6.469937132437348
2107307,-0.090977980163642,-0.22625249701166192,0.059830799542564025,-5.735792669052699,-8.334165578042336,7.290789742382695
2107329,-0.1093573407326599,-0.19595175988094196,0.05082323202298315,-9.137746290402596,-6.4110827740936385,4.232310253520381
2107351,-0.0876755791325241,-0.20063016255741178,0.02876110406129352,-8.63596621105834,-3.442733665102672,-2.102689929255025
2107373,-0.04726029025566054,-0.26072119007371625,0.01582518294352489,-5.904878652572629,-0.8654910781225507,-7.726293018103946
2107395,-0.023179767637080104,-0.3358086780180656,0.021450995887222282,-4.534139654517681,0.824607160770936,-9.065135500683816
2107417,-0.02427163819361074,-0.3613089112030295,0.03196025731727023,-6.0764449611809015,2.1759986369737905,-6.705755976714235
2107439,-0.029310436077476805,-0.3145216877189697,0.02890712701000651,-8.457209794153153,3.5241313110188432,-4.056632287800815
2107461,-0.020897642211978103,-0.23503852127003969,0.011775200698538204,-8.634907786061355,4.216821436728305,-3.0380725600713765
2107483,-0.007373467057068769,-0.176951769137779,-0.004420983631093453,-6.2404787433286515,3.390757201311802,-2.9325192055018525
2107505,-0.006377719302170041,-0.1557075338122428,-0.009107613167432731,-3.59687141845241,1.1504037476660922,-3.010748126624405
2107527,-0.0197652572448075,-0.1509082135577619,-0.004809827701421361,-2.456604713617635,-1.3845488510576527,-3.958435235675918
2107549,-0.033958496225013984,-0.14529550196726002,0.0018439147214260516,-2.0694776062758056,-3.0448338810593003,-6.139376748331742
2107571,-0.03882604317997896,-0.1423972283542664,0.008823822306021292,-0.7622305700719199,-3.393514377199006,-8.12523054010963
2107593,-0.03755126360287698,-0.1507073498725533,0.01679079228472297,1.6798310813296549,-2.711747689699916,-8.019906709014814
2107615,-0.03849504425825101,-0.16641074364891925,0.02380073787319474,3.8779721053061227,-1.5355244896144051,-5.600699033253711
2107637,-0.04337201091334371,-0.17547322905900062,0.025095377180367397,4.578453432369438,-0.3118413262288392,-2.4147441884702903
2107659,-0.04649734284863194,-0.16694176839033995,0.017649278204750107,3.9305053397716763,0.6395860547818796,-0.055305201473853455
2107681,-0.04337267761406116,-0.14261319416749144,0.004128055245305819,3.1877104491604067,1.0665455696459631,1.0854183361478726
2107703,-0.03640469906130288,-0.11670500129649708,-0.008013916002242346,3.475262828951256,0.8440852050096016,1.4922927995338018
2107725,-0.03176862357688057,-0.10622233220819212,-0.012009240896280828,4.847338624334105,0.08833944637522768,1.5846017105570898
2107747,-0.032749561408322594,-0.1179556783080085,-0.007128742250972395,6.371384746725266,-0.8776774210598955,1.390425348127817
2107769,-0.0371344504879706,-0.14249614195565688,0.0010182315414490042,7.088539166934957,-1.7285665642983965,0.9385747404766133
2107791,-0.04034061977256228,-0.16234368742534705,0.005783820860079385,6.942294505940059,-2.31809441073857,0.6490123784401987
2107813,-0.04046251005172069,-0.16788358715862164,0.005632757237937456,6.714239234960022,-2.659836681452029,1.166307524747042
2107835,-0.04022778173826724,-0.16494404560311868,0.005029617180438529,6.952751595556097,-2.7508794740721454,2.7353774891145477
2107857,-0.043821579705403325,-0.16566471578505598,0.008904454851517899,7.0818182546149995,-2.4773665214284435,4.738834775620927
2107879,-0.05164030306615711,-0.17359649918700715,0.01660175043981779,5.858796557000627,-1.7512871938108165,5.985632049848136
2107901,-0.05868894748004731,-0.18032449573811313,0.022091817804444545,2.7976040554222146,-0.7135925686202125,5.661261956935822
2107923,-0.05902995637856082,-0.17597018669787248,0.02015157145079767,-1.0958120526009545,0.27380731299687266,4.074735895183055
2107945,-0.05199869189946725,-0.15974195102524,0.011578906080496892,-4.156614642270814,0.8625946946089115,2.3838254228049154
2107967,-0.043159787221234064,-0.13946779609927276,0.0021168930359332216,-5.466719885928656,0.9436260062054748,1.5150448257205014
2107989,-0.03856405134671346,-0.12392354240239516,-0.0029009360240685343,-5.299246061884249,0.6824091249807276,1.4245542081431848
2108011,-0.03898510836875628,-0.11789817785453106,-0.002140072152895042,-4.40719861248299,0.3671328650151151,1.4641609917399172
2108033,-0.0406415026426655,-0.12225676099867118,0.0024385138636606705,-3.2723657338861774,0.1960616947055412,1.284267965252859
2108055,-0.04026876712510659,-0.1343120862335865,0.00776153262823984,-2.112914714558271,0.17740919457764143,1.1421110536275951
2108077,-0.03781374682478287,-0.14757210170509508,0.01082832963353538,-1.2133577602150833,0.21385799511263007,1.4227383395981847
2108099,-0.03533172200503141,-0.1548497579879156,0.010064335281189501,-0.829548273597359,0.24255997249298566,2.1949355000072206
2108121,-0.03554907490578806,-0.15386431447532892,0.007181325802869324,-0.8378348397422498,0.2764976261874535,3.2742300316948443
2108143,-0.04055913475865924,-0.14837931574873545,0.006339302092240912,-0.8305404985076097,0.378210946649205,4.362546358528206
2108165,-0.04904962102086433,-0.1433542222944323,0.009760262867853536,-0.6365684043371158,0.6533876305136884,4.964599808978476
2108187,-0.0553320876981653,-0.14124957433280766,0.015072878763892707,-0.5493728480396802,1.2077946586843884,4.525424804488459
2108209,-0.05444621515489891,-0.1431481999198282,0.018386305498149794,-1.0102743457841303,2.01798501298112,3.0265755126171796
2108231,-0.04848018417124739,-0.14924917243520136,0.018760912823447575,-2.217828986314559,2.8682715010417303,1.324940068981793
2108253,-0.044392426616066544,-0.1556435251707885,0.017675613005392284,-3.9859105490024644,3.4812689189749477,0.5107477105659524
2108275,-0.04459723281471395,-0.15408427207400474,0.01517634705884574,-5.723180496734594,3.675077508320299,0.8110988300497767
2108297,-0.043500093322988605,-0.1398005165628983,0.009633551779415548,-6.553388264563362,3.352214550416832,1.358583113103849
2108319,-0.03584183865231502,-0.11932185752139178,0.0018047216452920633,-5.8148215829386,2.45775029826303,1.2018772537275388
2108341,-0.02532587561774627,-0.10682983596218618,-0.00360030358296349,-3.687981080145933,1.1020906117360472,0.361574880330164
2108363,-0.021069910919605257,-0.11111126733281468,-0.002344573890698318,-1.2225710310853006,-0.32592512015040725,-0.34017054535532826
2108385,-0.02644873757525849,-0.12693991317369943,0.004123512143292273,0.40251199102615937,-1.3261982223085742,-0.37325159741132286
2108407,-0.03481543515086109,-0.13956467981144585,0.009194405676120555,0.6403068904268925,-1.6085682931265164,-0.10944526078882659
2108429,-0.03708984380823486,-0.13756836768559202,0.0071119696793184315,-0.31260930467306325,-1.2294601666729343,-0.27696933867747564
2108451,-0.03186502671667377,-0.12255444310223276,-0.0015481778263779383,-1.8911227732999658,-0.48062063998137394,-1.034425375045926
