timestamp,ax,ay,az,gx,gy,gz
2001069,0.00433201562412532,0.010218779161405112,-0.007628303462267319,1.0125156163495996,0.8013595686859454,-0.14386065940461215
2001091,0.0022395120494670597,-0.002312050730672963,-0.0063089254375605745,0.538335847178014,0.2419443030277956,-0.5069051989807974
2001113,0.0009002740609097106,-0.008504117075489207,-0.004377919598672873,0.06692582452627552,-0.2427849833391593,-0.6318751779950247
2001135,0.0005026467514472328,-0.00706879111507085,-0.0012564632384257995,-0.2900093779781727,-0.50416266656015,-0.3984062029800407
2001157,0.0007183215337766056,-0.0017374297426759422,0.00278290676994154,-0.4043649756383518,-0.4279595709440557,0.06864044861092176
2001179,0.0009895868544312415,0.0028636270414575215,0.0061021392073267655,-0.29910418526811083,-0.11229335245761261,0.44186869506677656
2001201,0.0006463051773644848,0.004536230685108324,0.006812873894696098,-0.15240909289368484,0.15667724521552756,0.47600378017485306
2001223,-0.0007933272531323625,0.0037940511916026353,0.004547751014882137,-0.14583771776135263,0.16573213990273739,0.24596286102326934
2001245,-0.0030188548342894956,0.002603116900324748,0.0007244835983411842,-0.3338484120781009,-0.02138471464878862,0.037040865154922234
2001267,-0.004804844485414685,0.003003821538156858,-0.002917435372112701,-0.6201262210691706,-0.16391045210974053,0.02278733577410965
2001289,-0.0049469953022106845,0.005671592338197144,-0.005558329194728145,-0.8183244561018052,-0.12930956364303306,0.12394783256621537
2001311,-0.0034713762941758685,0.009013398795793815,-0.007038783278326457,-0.7722370239655739,-0.03756255634583092,0.1656699106145169
2001333,-0.0016864866915071467,0.010053879085046392,-0.006981555769856611,-0.48508065553065033,-0.11501715034981833,0.08376799625094337
2001355,-0.0008779939313892047,0.007001853336966192,-0.004773680363802462,-0.15057470856644412,-0.43007552859592935,-0.04214452089005995
2001377,-0.0011241242045709737,0.0014366292223018386,-0.0005483380615905197,-0.024804086489891394,-0.8027145437912493,-0.0949346102176606
2001399,-0.0015485973656995055,-0.0022128920824781963,0.00408535983482496,-0.22179336170032912,-0.9843655038998086,-0.03326922843797136
2001421,-0.0015566939084828456,-0.00014431534682351132,0.006770980243893792,-0.6032478479535531,-0.9051399006772299,0.06080781632748998
2001443,-0.0015630418002926213,0.007177908554141775,0.006267644779076576,-0.8703347000292715,-0.7191096087979656,0.034810367593806735
2001465,-0.0023830101020237263,0.014757559904178874,0.0035984848566462876,-0.7999974022720199,-0.6176058974814012,-0.19153801264136314
2001487,-0.003882507792599489,0.016729849094596926,0.0011175924339616556,-0.4422339202900355,-0.6341188001754745,-0.5134149204429443
2001509,-0.0045555066563538246,0.011107068420013614,0.00044317376914076187,-0.12101178211944177,-0.6463868378916241,-0.7007872247256471
2001531,-0.003119585572936864,0.002350522559215898,0.001457041213742562,-0.21793134587831198,-0.5372354006916754,-0.6180145958088648
2001553,-0.0006673940648740817,-4.324746446385133e-05,0.0030613609997105925,-0.8511481032148781,-0.30549060912513465,-0.41093182837615494
2001575,-0.00041437219062826186,0.012800155562389361,0.004316821338389226,-1.667505807674198,-0.028503383714228846,-0.4488087279091928
2001597,-0.004412402033880562,0.041702405301438025,0.004641391863951253,-2.0115165547515024,0.19723240472933407,-1.0015691768348378
2001619,-0.010182873133773964,0.07615562906965755,0.0032001436211121104,-1.5456276833389269,0.2137023958250821,-1.961570153498131
2001641,-0.010976184216628455,0.1005002427303181,-0.0015133811812526438,-0.8997726543664679,-0.2429841880351841,-3.0423691881656865
2001663,-0.0010337727007555312,0.10684333437658156,-0.010794656698564841,-1.552989254610733,-1.4203559120463336,-4.418285153583992
2001685,0.016901009313276618,0.10253979994718741,-0.02324920062565752,-4.607545723851571,-3.319491861229294,-7.011553251756188
2001707,0.028818689426265708,0.10191327185985609,-0.03279865297132864,-9.372511903248732,-5.599203073008166,-11.666303746566673
2001729,0.017704090772782864,0.10879129028608729,-0.03082610404883307,-13.389610869864951,-7.691047916793613,-17.781440028593238
2001751,-0.020477238813162754,0.11067501013663916,-0.013101491925061267,-14.390082574014903,-8.94282134847758,-23.17805189660196
2001773,-0.06789101986204849,0.09455287921588644,0.0141556689061058,-12.434946037480378,-8.738825972990306,-25.94177862336641
2001795,-0.09596963444626623,0.06681933815940444,0.036673098322176544,-9.808783627183637,-6.839304965406151,-26.3787640628746
2001817,-0.08906202667484593,0.051978498172767514,0.04252530308717842,-8.48351053825349,-3.8710996137424765,-26.63647337913867
2001839,-0.0560160257747325,0.06943827283785459,0.030214425101442545,-7.845796715141758,-1.2879966950801645,-28.270482625589565
2001861,-0.01875181848322331,0.11305636916023631,0.00746766238128801,-5.272023617865027,-0.46908243239650604,-30.54484442345058
2001883,0.004798921761458974,0.15435937871799515,-0.01444083940559292,1.0509739228437627,-1.69873398433789,-31.29043940904112
2001905,0.006269800744431201,0.1654335150017682,-0.0250785257593019,10.046597216295519,-3.946544130683681,-29.33094443805923
2001927,-0.013000433277201183,0.13957918331143693,-0.019601310918137264,18.282104759355153,-5.552497141836961,-26.124911820288922
2001949,-0.03938765298455833,0.0929655535790218,-0.003679244158450128,22.264112989557844,-5.350280421539848,-24.997982583921658
2001971,-0.05163253866131616,0.04941177807518011,0.008717408051261142,20.567538384244138,-3.5752624101344916,-28.222149558059467
2001993,-0.03895039792345658,0.02297698601998585,0.007271303944433504,14.57813026617636,-1.7919801679279845,-34.41703648278869
2002015,-0.014804025098613009,0.011475834078891684,-0.003834215508199574,7.473413982739625,-1.5964866282852401,-39.28264131603216
2002037,-0.005125565271322036,0.004113180287019833,-0.009585203692024199,1.9910104197756144,-3.081140587891461,-39.625151985345745
2002059,-0.01977361113061439,-0.00485294241180755,-0.0006630396366585137,-1.2353598099151706,-4.630784250446941,-36.534537222437
2002081,-0.040858165201956016,-0.01025499821354564,0.015082690591161524,-3.124923629356553,-4.46493243362349,-33.91552482816702
2002103,-0.04371138648289875,-0.004500994546963747,0.02038719118811121,-4.0943020868406235,-2.4326564652114104,-33.96506487526841
2002125,-0.02518158627966235,0.00929339808349758,0.007598491345992163,-3.099482167115564,-0.13992797062418497,-34.974885919564066
2002147,-0.0050106967802649935,0.01563878772254434,-0.01274182171984363,1.0033671388349474,0.7073577341142482,-33.83675393566127
2002169,-0.0017364853214276261,-0.00019267645315359185,-0.023003079448560206,7.52065479046611,-0.11927708266616902,-29.849261234106145
2002191,-0.014408757602715722,-0.03749425274543267,-0.01611809225696974,13.772203106435688,-1.4676676090479845,-25.433168098598983
2002213,-0.027913073968279724,-0.0786550464246548,-0.0015057732190155964,16.932848077326316,-2.1506541333509914,-23.564873395923847
2002235,-0.029611216865360338,-0.10291489640915721,0.004952546116602002,16.119320451351133,-1.9803044969151296,-25.02467855386982
2002257,-0.0191018150620157,-0.10403265116395309,-0.0035887414370256877,12.965832557492035,-1.6933029767467442,-27.81190060931224
2002279,-0.006955838168247093,-0.09591377640218354,-0.0179577906974633,10.1374919070605,-2.149828783087869,-28.828583305634712
2002301,-0.006153183687023593,-0.09841964249127731,-0.02145392922272203,8.894358497054899,-3.526962494156168,-26.485282644516637
2002323,-0.02052800663011785,-0.11551665958102496,-0.006986551363891438,8.101410255303545,-5.052537001912501,-22.08229636896689
2002345,-0.039309199591866885,-0.1312106825934753,0.014749590579252096,6.036774717380727,-5.5523007882559465,-18.373849360117834
2002367,-0.046543735393837854,-0.1309635604568939,0.026439209411703465,3.0046295626307824,-4.4699116323807315,-16.559152297866934
2002389,-0.03778793216519523,-0.1219148512260929,0.022469066980108466,1.3224161377635024,-2.3959127145625954,-15.18074979364957
2002411,-0.024100970426618813,-0.12402599001687974,0.012664822150594415,2.510864647798257,-0.5120463296990084,-12.264423405259254
2002433,-0.018247226130275386,-0.14370678934102035,0.008508379740693472,5.314783344126363,0.42895109860703956,-7.831329321876441
2002455,-0.02156833845875674,-0.16486795032877394,0.010700461126381546,7.018630854590594,0.48728175388909173,-3.64067810268865
2002477,-0.02722838586496281,-0.16674470707687108,0.012012751493080091,6.15794090611604,0.10291230722341269,-0.9610374057513054
2002499,-0.031557046046871935,-0.14365973766267853,0.00783774861655813,3.382523373224477,-0.3817344880662056,0.5061204662567158
2002521,-0.03659332458940741,-0.1053498893549441,2.2865080491497804e-05,0.162606512764275,-0.7597857761137377,1.5823591907192147
2002543,-0.04346905292376842,-0.06473773275055436,-0.007335458818294207,-2.4682117790505953,-0.8783661279200515,2.390622389929761
2002565,-0.049251646832883515,-0.030987127979253543,-0.01155020954402222,-3.9487285194308988,-0.7458330004275676,2.568329008995511
2002587,-0.0512610782606478,-0.010632928993953697,-0.011233776624496337,-3.9282810133584185,-0.5792623177486992,2.1663025702008873
2002609,-0.05061448486748523,-0.0070596311012171425,-0.006322467733582694,-2.5691228092969265,-0.5673133759464664,1.7396456585905948
2002631,-0.04985284651260689,-0.01616427000184391,0.0005936106023001699,-0.7858416721089321,-0.6422880024610473,1.6204268895866527
2002653,-0.04933250249512209,-0.02697278412419484,0.005148681363144808,0.36384836429809153,-0.5999739825033836,1.5258843943263882
2002675,-0.047736008563574586,-0.030538085072522682,0.004930011953235108,0.5823502363769433,-0.4029635916168643,0.9889416502567427
2002697,-0.04516195717528163,-0.027570757797558295,0.0015725492620360117,0.40717412368972916,-0.2557403430447358,-0.06943887272859973
2002719,-0.04389145833502989,-0.025735126775397212,-0.00164590942784425,0.41270762277538464,-0.3650902877822677,-1.317920768503691
2002741,-0.045704394348475806,-0.03039453737691145,-0.003510135229810092,0.5748041422578142,-0.7056216541040582,-2.395320079370661
2002763,-0.04961608029191677,-0.03955620135958376,-0.005083400559441643,0.4888166226397089,-1.0747708428551606,-3.1324697548527367
2002785,-0.05319699035830087,-0.04740337627958593,-0.006720995102213179,0.004145961525354345,-1.322130115742387,-3.4308752995355314
2002807,-0.05535747925050379,-0.05077640065210003,-0.006642850880544841,-0.5800940532887229,-1.4352414182467728,-3.126172159510694
2002829,-0.056671949528184225,-0.051010324455437545,-0.0032147377355916875,-0.9255858735110835,-1.4264274632912335,-2.1440428190484826
2002851,-0.05743838879260473,-0.05045762585075952,0.0024993977244933564,-1.051226271451432,-1.2527619264241125,-0.7710249670985869
2002873,-0.056749734377378395,-0.04907424298784911,0.007373307619777317,-1.219387905530012,-0.8879167608030354,0.3881533040699144
2002895,-0.05369272601222791,-0.04481533297011195,0.008811588815367484,-1.5380340495207625,-0.4095504523197945,0.8275185504791054
2002917,-0.048796855115187755,-0.03666018129028165,0.006350606072758353,-1.790518069342814,0.025044182433988163,0.5124011333586383
2002939,-0.04402065119489567,-0.027001515005951673,0.0016264213039975084,-1.6349000624627539,0.2736713086258367,-0.15412843946543733
2002961,-0.041377543378466025,-0.020915857085887245,-0.002566732253253602,-0.9167652487073729,0.28850200637259016,-0.6662564594745684
2002983,-0.04149471526068785,-0.02236115099764893,-0.0038777015591758544,0.19320216608558072,0.1487915380161217,-0.6992749903537043
2003005,-0.04340438975900703,-0.03072201613041403,-0.0020145446536647097,1.318483124468304,0.029488748988958896,-0.1812023886542588
2003027,-0.04564966240494161,-0.04142761065377498,0.0011356641007517277,2.1225603570825893,0.10061992386233391,0.7654873101675373
2003049,-0.04743367668360026,-0.050100478153628905,0.0033553916407273133,2.4921056823716925,0.4204721880358603,1.9345765558037995
2003071,-0.04878932857390712,-0.05603380554003191,0.004174414514555031,2.5682182020149944,0.907443183060633,3.1680413784832027
