timestamp,ax,ay,az,gx,gy,gz
2008087,-0.003929616276133305,-0.007692964209198683,-0.0022294941679256467,-0.5749212665733158,0.4412365449819655,0.9813919095652309
2008109,-0.0015950438472020832,0.0009118683187401739,-0.0004337366136815545,-0.4544216242211322,0.1796388132828131,0.44815819529494827
2008131,-0.00048200431375543484,0.00670801280606284,0.0009204337579975109,-0.21496232481741417,-0.032846375609583964,0.020377341798733073
2008153,-0.00036401510833980385,0.007708304916680803,0.0015144663157089663,0.11494930751359383,-0.13397231809614235,-0.28611428058165816
2008175,-0.00011041936357325393,0.004123149224982448,0.0012462635983504404,0.37289883311078126,-0.11085151102081385,-0.4991792256042717
2008197,0.0006171098652095662,-0.0012076180781104115,0.00037256332149172464,0.4248535991928081,-0.047100076005822035,-0.5789829491325634
2008219,0.0009395296028207138,-0.004742305159401567,-0.0004143573701049112,0.2913485272067187,-0.04987505341613451,-0.4321825800799025
2008241,5.595673770820001e-05,-0.004741164445521967,-0.00040427264113065275,0.09466905267392035,-0.1303420797012312,-0.07881815312523262
2008263,-0.0016318864006556852,-0.001702079048634541,0.00029697843273534543,-0.07748087656228822,-0.18871371754993446,0.2549974121478055
2008285,-0.002726858005760847,0.002762608591830967,0.000556522399348979,-0.19716061391657952,-0.1282306988336558,0.2929542429522234
2008307,-0.00198645691807003,0.0065293629428768455,-0.0006176226388178329,-0.2188919880017334,0.017240022151186408,-0.025186637376613665
2008329,0.00026794087803627215,0.007321786426563819,-0.002597253275659171,-0.0842762145904647,0.08209751207509139,-0.4534731611676842
2008351,0.0017700980096794522,0.004211072310870342,-0.003367682456979565,0.1554434869510681,-0.07010440016348686,-0.6452344188894863
2008373,0.0002502144126178881,-0.0008095811022906125,-0.0016763898984494604,0.2904933330640343,-0.37545097703565944,-0.4960124441710616
2008395,-0.0037598842084752004,-0.003586975376013445,0.0013053370355270316,0.11099750825174795,-0.595551665791267,-0.28961320232389703
2008417,-0.006846201212281546,-0.0009636987492567543,0.0029797185865871483,-0.3531347795195251,-0.5343063465951886,-0.42505735671096473
2008439,-0.006114981224638581,0.006236944955217292,0.0020555775343538,-0.7683253638743128,-0.212307466595758,-0.956486997104225
2008461,-0.002237364446241053,0.013048875050202574,-6.340667196958255e-05,-0.7408411408813387,0.16925725973400402,-1.5055942285436958
2008483,0.0014650282051229156,0.013852023683771277,-0.0008567013970304462,-0.21000205362377056,0.4035864363818987,-1.7116031069260094
2008505,0.0025835290498369416,0.0074489441546917385,0.0005531638755279717,0.39249186912961814,0.420526587554851,-1.64946018458259
2008527,0.0015626325412123137,-0.0007748663917978502,0.002651774346606998,0.4695834728660287,0.3078101434854136,-1.6623715766634257
2008549,0.00022292085284721666,-0.00268877049223451,0.003631545501802405,-0.16472863664393977,0.22436901361231296,-1.8715510393563661
2008571,-0.000562746766756216,0.005498196097666218,0.0035806338045336348,-1.0388057273364872,0.2764830369218841,-2.0490862017198377
2008593,-0.000542714154678264,0.0201546211012081,0.003555352941017375,-1.431766279328428,0.4455131611308991,-2.025734019731129
2008615,0.00242666152436611,0.03515210201631583,0.0022703582329065483,-1.1230389930301905,0.5848777585874089,-2.148316574346613
2008637,0.012093693408718006,0.049602917094114345,-0.004767555458157536,-0.7681575132688473,0.4158207238432478,-3.2373963222866666
2008659,0.0278690163404665,0.06877780339299147,-0.020450664919135282,-1.4427138004954017,-0.4699875232402315,-5.9587161534407445
2008681,0.039671818126909376,0.09616503189383775,-0.03956093226829056,-3.6715234703513433,-2.440893842806511,-10.122142215967575
2008703,0.03380978235630534,0.12592633345393126,-0.048946845832333656,-6.847126246987503,-5.455182031004253,-14.633707623285039
2008725,0.007275199018559849,0.14566990979113284,-0.03706213230501365,-9.67101927866675,-8.835350020516586,-18.27912345441355
2008747,-0.026895740169888598,0.14854208692377946,-0.005158702821943801,-11.26324970051971,-11.551790034778707,-20.675656305393794
2008769,-0.05091234291124688,0.14232760338853948,0.03033394894443137,-11.793022384823132,-12.810069951490279,-22.499179329263985
2008791,-0.055326079540111046,0.1431248582034726,0.04770786334240166,-11.867555174526341,-12.425577517972615,-24.750500359387328
2008813,-0.041154397861846805,0.15748153154371344,0.036005434625891126,-11.427871656196842,-10.919514656003084,-27.81009988544084
2008835,-0.017570851514756042,0.17420141309553386,0.004436833744556922,-9.703997001984701,-9.449305315030553,-31.299799164833015
2008857,-0.0003399269865513575,0.17725119143926674,-0.024483383750704555,-6.379974456462525,-9.223000422221693,-34.76994389467097
2008879,-0.003858681311835665,0.16271233675613106,-0.03276513684738938,-2.3267357846706322,-10.384800614175347,-38.143104334153904
2008901,-0.02822155306832478,0.1390799639036756,-0.019297222973592515,1.1511607035704574,-11.519805891324518,-41.3190611865205
2008923,-0.05641003730892904,0.11592183989057862,0.002306429448315002,3.569379407546641,-10.734862875226847,-43.69613069436818
2008945,-0.06731701601296246,0.09781862667637392,0.014947110557965599,5.574247530916634,-7.451331200036684,-44.430169925157685
2008967,-0.05194719119191075,0.08507342915101071,0.009054585280889673,8.243350657918853,-3.0869056802651307,-42.99649948283289
2008989,-0.01889453687688256,0.0724766341604677,-0.011602404654020128,12.228941442824823,-0.002366599817057058,-39.20366680856717
2009011,0.01223716813082972,0.04810631135334082,-0.03180515822487291,17.147137710354293,0.1822818032489804,-32.96944903897655
2009033,0.023167891116876158,0.002438630893763538,-0.035472101736706736,21.25436976168212,-2.494604045841799,-24.854625010823685
2009055,0.009061440378868859,-0.055362211184260754,-0.01936490400754948,22.04538964316873,-6.589065275943553,-16.915970055592723
2009077,-0.017434806677797655,-0.09572348914071342,0.0031166160817992835,18.334457568328695,-10.229899467179022,-11.898975880084695
2009099,-0.037898954601855474,-0.09419828702158872,0.015374354284935055,12.322358831797839,-12.168039412304926,-10.547956322545915
2009121,-0.047254532345638665,-0.0605689124352816,0.015524394542724973,8.654667885401619,-12.261333545380676,-10.43052758433719
2009143,-0.056398386819023996,-0.03353410655627725,0.016633965290247545,10.189982026198297,-11.099242953552329,-8.90810823598576
2009165,-0.07204264609073564,-0.04242830665858046,0.027925267988261806,14.890302265069748,-9.26734890052041,-6.913325519167634
2009187,-0.08193219199471061,-0.08107130330760982,0.0418327364455984,17.885186652851633,-7.109625357801538,-7.924836904254182
2009209,-0.06974893920271702,-0.12172662819414129,0.04413526398195428,16.48879168777601,-5.061050453528802,-12.978982546539687
2009231,-0.04042537624883247,-0.14506174413189643,0.032258102389651176,12.259429885652397,-3.711514157780435,-18.57818628141977
2009253,-0.018629753643670314,-0.1508276183321507,0.017254284533823484,8.352016633143563,-3.19059461832351,-20.42376210326499
2009275,-0.020706573807973208,-0.14854854223265124,0.009593963916171724,6.196604739505248,-2.7430683122887074,-17.871544785038697
2009297,-0.03776560951292748,-0.14782915870197488,0.009286993173613593,5.164640699421055,-1.4335918596814718,-13.665379922583533
2009319,-0.05001254520209229,-0.1535837895467781,0.010365671528723324,4.265049529298713,0.6690412526141317,-10.368815830804474
2009341,-0.04939480588475314,-0.16044609395891155,0.009273454421446503,3.100302063378554,2.3896419296379925,-8.47501400073468
2009363,-0.042538435041647095,-0.1516939016309254,0.0060905101386733865,1.6494264942690193,2.6368570791890242,-7.497996423500103
2009385,-0.03778293884835558,-0.11234470784369986,0.0013728444841673761,0.19355922707185505,1.4120541730428449,-7.330323482341708
2009407,-0.03697822498572702,-0.04749185524958573,-0.0042414457934667055,-0.43681176016965195,-0.43657130846125286,-8.144925163389253
2009429,-0.038373103232998786,0.015231266693988296,-0.008203539603801477,0.7581824219068694,-2.121569752691099,-9.796691933182238
2009451,-0.041542175719762646,0.04409017035653596,-0.00683555434073733,3.9317035676548824,-3.3362629956773757,-11.771789515247724
2009473,-0.04748699588226749,0.0253938525169958,0.0009273030099882073,7.893665832326643,-3.986379248640419,-13.4604898795454
2009495,-0.05585386215789028,-0.029240433621302915,0.011419757828970128,10.819146678669254,-3.9215182403047,-14.342951443764898
2009517,-0.0639700079516564,-0.09345588112651662,0.018934641662401202,11.518098488202519,-3.1013022993658583,-14.122014500261582
2009539,-0.06909905541443126,-0.14365721180392235,0.0207388459407347,10.073149087993531,-1.8380752958811688,-12.820714773465275
2009561,-0.07116854041359791,-0.1700618947028546,0.019022642466953534,7.366919163108806,-0.6248391470064524,-10.734819288709643
2009583,-0.07236368837542853,-0.17515292470272092,0.01775228008863665,4.14584667482916,0.30202426370343466,-8.314889076973525
2009605,-0.0736113952083208,-0.1641210486216931,0.01799186884583461,0.6171953822789866,1.097201700616391,-6.114156805526
2009627,-0.0722577972104083,-0.13814566661552968,0.016696682328270776,-3.118373043232584,1.9627214893869922,-4.68181805073727
2009649,-0.06442203504347876,-0.09733302192170386,0.010177363142809268,-6.413298338461448,2.7634288939064255,-4.255026327980042
2009671,-0.049987785137719926,-0.04892501290860916,-0.001240716209975002,-8.0556484892295,3.0585944343347493,-4.5008370154072805
2009693,-0.03475482168415465,-0.009450986896947169,-0.012071564951688084,-7.108514917733977,2.5003793334601228,-4.707994576744543
2009715,-0.027002259747887235,0.004574206645816262,-0.015535573678005407,-3.865962594082831,1.1924704794614398,-4.337700823257965
2009737,-0.03130774638666816,-0.010587042661986876,-0.009022770637089336,0.100478304416449,-0.2938782059931001,-3.3880601978333513
2009759,-0.04501088605830169,-0.04267075316995981,0.003850165596195573,2.9652888187832978,-1.2374654762551838,-2.2795516344305207
2009781,-0.060123170418111785,-0.07270941932746676,0.015936607278272275,3.7962414376560756,-1.1904866093921185,-1.4898627723092794
2009803,-0.06882683029146781,-0.08739234940753385,0.02105680564114813,2.8564249755742206,-0.23853394435111275,-1.2412409057925986
2009825,-0.06822982093302073,-0.08456881386133927,0.0171337306987885,1.0755352397835147,1.055044738828625,-1.35796276598589
2009847,-0.06114576056413087,-0.07071478679378314,0.0069430499034887376,-0.6080907845550456,1.9781679431243233,-1.3977579594606206
2009869,-0.05293534542805505,-0.05503143253075087,-0.0035993906621987573,-1.5803819120828282,2.07587493234616,-1.0632877052792578
2009891,-0.047434641375177056,-0.0444095937325596,-0.009036106012811929,-1.624959387968561,1.3944762544811806,-0.5244617404581574
2009913,-0.045228929773589506,-0.041432284441648516,-0.007602694464190451,-0.9044679552366789,0.41537705696833804,-0.21422407291784204
2009935,-0.04483250732253448,-0.045559759876073185,-0.0016133610651022888,0.13591615048840675,-0.2878871491703356,-0.26114360854665397
2009957,-0.044889546231298254,-0.05510804703480975,0.004940265459791695,0.9481401198364295,-0.46217791291040583,-0.2590883429191942
2009979,-0.04551259042410814,-0.06738731902939925,0.00917316906378882,1.0898844412806643,-0.35646776276710546,0.2792302360498176
2010001,-0.04788544137148207,-0.07764679432727932,0.010379075359835411,0.4171632772452973,-0.45698565621682335,1.293901390394458
2010023,-0.05234262235024293,-0.07965556138374691,0.009204705107653408,-0.8116274114160139,-0.9430785986767375,2.116107838372807
2010045,-0.05693628368990844,-0.0686528792340012,0.006306661226308582,-2.059871899248108,-1.4351324795135,2.0289186284394356
2010067,-0.05888956906358969,-0.044374521847091404,0.0019536799458383216,-2.883882815880388,-1.4013560600202826,0.8275917619035709
2010089,-0.05787881931999346,-0.01177620010812011,-0.003396043347716299,-3.2810038152123404,-0.808129546905027,-1.0947214991736414
