timestamp,ax,ay,az,gx,gy,gz
2064297,-0.007109118997361288,0.003317288127437473,0.0011078875683747842,0.25692296201065024,0.7345106968704828,-0.08898494557434429
2064319,-0.0013328797425025498,0.0025746236949332653,-0.0022604323096701287,0.32359495558710966,0.5310008176270756,0.047479003754825486
2064341,0.0031839895611881475,1.2650978513564273e-05,-0.004099961943865758,0.31298014362669785,0.4196019406475738,0.1488684524994368
2064363,0.005801317372882596,-0.0036950060568440046,-0.003939367245506601,0.18069210072025635,0.39832090391599917,0.23327644801640338
2064385,0.006245697422223365,-0.00565918992008191,-0.00243986301600037,-0.05599644429523034,0.3306532598110432,0.29782475077922654
2064407,0.0043342843244912905,-0.0036856058426492267,-0.0005837858918186435,-0.3053079159515767,0.050538272418415874,0.24998713830736616
2064429,0.0004486740140807697,0.000994474336178878,0.0011447931357622028,-0.4352688296309983,-0.43446457291235935,0.018565510254830553
2064451,-0.003990714010306126,0.0043264274160726675,0.0028376685495197164,-0.37490205085030265,-0.8731360930064644,-0.29036682061032754
2064473,-0.00698745753632372,0.0033827312585446062,0.00454139282361544,-0.207402658660459,-0.9614620677310965,-0.46135727348872685
2064495,-0.00705477595965928,-0.00038383029448105905,0.005660610470033638,-0.11965458795841842,-0.6144703489558008,-0.41594319336332697
2064517,-0.004159285417356222,-0.002458891844105285,0.00515112496202443,-0.21501334099311575,-0.049167923755204214,-0.316333352151408
2064539,-0.00010965038654455405,0.00016768494476115,0.002565089205426165,-0.3933949679770879,0.3781220312854747,-0.3928049464432699
2064561,0.002152497469252449,0.00623536361178782,-0.0009925108910955414,-0.44352782524039697,0.4267842589226934,-0.7056042324732554
2064583,0.0006855765342655189,0.012008273755294474,-0.0032867533113745194,-0.2441111599043059,0.13169034547542263,-1.0995233649424396
2064605,-0.0032155864685520755,0.015539249653096526,-0.002951046171612424,0.13643645279379274,-0.243266686800677,-1.3853672847861191
2064627,-0.005220699099025143,0.018822104851335637,-0.0013382220111021212,0.5356375687057189,-0.4311267679991283,-1.564294649003002
2064649,-0.0013773676670320533,0.025231419550162296,-0.0020179438818932766,0.8789685370103615,-0.403308600550003,-1.8828979743387904
2064671,0.00804097522983405,0.035294550166179946,-0.00786986569376999,1.2179429849512413,-0.4517359042810934,-2.6810340447556364
2064693,0.0179476220664422,0.04646569245134261,-0.01807521736624109,1.558482616077924,-1.048734170234451,-4.167336946803636
2064715,0.021647558762937055,0.05652152872012573,-0.027164620703918802,1.7460908887444324,-2.5232417262521336,-6.243519117281613
2064737,0.015508432252087694,0.06449158001278077,-0.027271369576573574,1.6226285581752422,-4.686468873442145,-8.423910094441064
2064759,0.0027922396903893656,0.06885587387667341,-0.014048876664199014,1.2071812252801501,-6.722056790485406,-9.898357252683633
2064781,-0.006462793257127322,0.06928982617839426,0.007154026200144869,0.5869712989317247,-7.693821302223048,-9.756905160101613
2064803,-0.003190520952958831,0.07075753844117331,0.022934537333083708,-0.2948590965880994,-7.482332758831295,-7.366323847252057
2064825,0.009375583534605788,0.08084643980977789,0.023545635752045508,-1.6075081801257534,-7.167079644911551,-2.9235218262265144
2064847,0.01507284698502516,0.10080907280129955,0.012673903881829731,-3.410942292197893,-8.070038040593698,2.094015978194217
2064869,0.0013654444068077734,0.1224260293474006,0.002367804162711909,-5.438385520160572,-10.220293733063706,5.42305494202694
2064891,-0.024170168468019247,0.13531526893064258,-0.0009513957834843595,-6.921282793750542,-12.073253008539906,5.757754955574457
2064913,-0.040315855003938444,0.13520067326581667,-0.0010744681490156315,-6.733654063722105,-12.091688276964385,4.125619290564851
2064935,-0.03694720802607638,0.12485263699139154,-0.002434948259383284,-4.276176227233835,-10.462496326449022,2.714517488710162
2064957,-0.027586564757836367,0.11071765284745458,-0.0017235972216251153,-0.5749225966556089,-8.872087198756637,1.822127439014438
2064979,-0.032589860512345165,0.101554446584778,0.006211467047298917,2.0221604071012376,-8.566054306042378,-1.2415224488766976
2065001,-0.052460589276909615,0.10784613599282684,0.015892776328289723,2.2765853319825458,-9.012259569590107,-9.030964213505714
2065023,-0.06428512189161513,0.1342444823185826,0.011163371280423481,2.6099253575294092,-8.753408556100542,-19.731579466143668
2065045,-0.048009788601176134,0.1646263824627029,-0.0166976824127725,8.336144286950619,-7.353040763717616,-27.144040446571097
2065067,-0.013559792949162939,0.15871197242987375,-0.05129876903761647,22.65949730784662,-5.936761470602804,-25.771140594715973
2065089,0.0043784763578419246,0.08186178323245252,-0.059418355951359025,41.529433275204774,-5.567189188458201,-16.101646232354987
2065111,-0.017578008919224262,-0.04891243461809864,-0.024690413404137586,54.59745463603499,-5.613009301086012,-4.903317932809797
2065133,-0.06262627947273167,-0.1603381569717422,0.028755275223610367,53.5713014576743,-4.506511354703595,-0.19975558916320535
2065155,-0.08613116712761874,-0.18669027800590285,0.055091057349791625,40.61315693269737,-2.1536522458758407,-5.083084490609719
2065177,-0.06077678516379943,-0.14135520688418157,0.03341521260567566,27.315823310181585,-0.8494521190555422,-15.220881062005136
2065199,-0.009422206915806456,-0.10766777024630117,-0.008706498126206124,23.995292295798404,-3.2197690057643116,-22.275666079785953
2065221,0.011891096249915734,-0.1498319652177154,-0.023412856771727424,30.008049111688894,-9.282163885773052,-21.03039111269214
2065243,-0.030804174222922347,-0.24438926164536268,0.007065329405414702,35.13975320554217,-15.818498773380366,-14.292835532235076
2065265,-0.11253891740283926,-0.3094818468924902,0.05334211680019908,30.176926522542008,-18.90898673358411,-10.503018095759982
2065287,-0.17341934547515234,-0.2926822862047166,0.07264259829944258,15.46534654230732,-17.24410224768266,-15.497509859086206
2065309,-0.17811829074139368,-0.2180097891928471,0.05360457454427707,-0.4607976917264529,-12.914776917379076,-26.352273475027204
2065331,-0.14496576874803552,-0.1519436284780547,0.023732231690070674,-9.327236383191087,-8.976789013256198,-33.87931162811934
2065353,-0.1176685985288277,-0.13739624251612262,0.016800163619802744,-9.754143830063855,-6.5234752210743,-31.467288411119068
2065375,-0.11800634668428783,-0.16275100678966622,0.039084889537141454,-6.6898976586228125,-4.2674462432807,-21.15538849470719
2065397,-0.1303358546533491,-0.18450669721492147,0.06745197457575833,-5.7005993578029095,-0.6187130668415844,-10.997774980457095
2065419,-0.126011859944492,-0.17254451523191255,0.07530748397494334,-8.071210389848847,4.271335560750637,-7.180319466712855
2065441,-0.09542972940284027,-0.1355724352098423,0.05708654663197106,-10.739925760752566,8.529352269813,-9.162792161276306
2065463,-0.0558445427629483,-0.10780901987850605,0.02926088272915761,-10.15790034386337,10.322945580486616,-11.726122197632026
2065485,-0.03259456469643425,-0.11389086357032499,0.011885437335136959,-5.851567914086867,9.466826687946568,-10.489343102020134
2065507,-0.03539013920623631,-0.14736430821093252,0.011399220672415679,-0.4925380177273271,7.410323256016243,-5.315573719536644
2065529,-0.051235475181979157,-0.1812106628486871,0.019465674170610386,2.885064448625303,5.802954061790413,0.479342468365144
2065551,-0.058365304896374495,-0.1949924829246975,0.02487993713117195,3.413210522933208,5.078161009696224,3.337433189108038
2065573,-0.0474026970751819,-0.19016742801112432,0.02470100888315814,2.549184661934423,4.358159834794193,2.2486773752196982
2065595,-0.02944622774882562,-0.18294765196674828,0.024510629293460585,2.3072985159095234,2.675276035593788,-0.8395314876767886
2065617,-0.02296937320138338,-0.18658613433225343,0.02970747574990491,3.4140536322104915,0.18669859011327372,-3.1195323099393666
2065639,-0.03397591289460324,-0.19966770454517288,0.03814935382978672,4.887133933724215,-1.9172274904006614,-3.4201904172611672
2065661,-0.05170713025976953,-0.20789552995358931,0.041938107942137315,5.201782688587184,-2.655934897205131,-2.621307428650602
2065683,-0.063088838847352,-0.19650983751551895,0.035913817878086285,3.84321824773833,-2.2287164887853126,-2.045373712839487
2065705,-0.0665102195110048,-0.16372424689568205,0.02336559212628725,1.7572873191656961,-1.6750151621777927,-2.086843657750281
2065727,-0.06915593089558578,-0.12435324338998942,0.013017529914525964,0.378226868609184,-1.7159170416902438,-2.3264147883452075
2065749,-0.07508415799921259,-0.09965758076899978,0.011119222685395799,0.31937771222035755,-2.1188693718759217,-2.2514137464806994
2065771,-0.08104756831312597,-0.10125110634514703,0.01712440327697512,0.9887148100317975,-2.17727470773092,-1.5668952148548703
2065793,-0.08301654001175188,-0.12297932905354823,0.026150568734564235,1.3260058831086294,-1.5607309152123694,-0.2541875288370238
2065815,-0.0815463328415293,-0.1472403392897112,0.033537189510192966,0.7712130018994797,-0.5265537979990659,1.2678768754281942
2065837,-0.07877971948184073,-0.1582857560759651,0.036272175045048205,-0.46070126243007675,0.5289402290420027,2.223804034563652
2065859,-0.07388603076998265,-0.15043221119273933,0.032260429428327526,-1.8007965170390794,1.407348800043678,2.099941174626301
2065881,-0.06526505572358429,-0.12791617082272055,0.02150680092281133,-2.7420980885497777,1.9621166104627132,1.2016007120256196
2065903,-0.056141626688132704,-0.10175492015694484,0.008749656150640033,-2.885730961860861,1.925659360107183,0.36674926889193393
2065925,-0.05409139058054566,-0.08642929650263978,0.002478175706270515,-1.9671111870233564,1.1651268415326632,0.10377536770737
2065947,-0.06335402063577726,-0.09319215244128952,0.008532673980532353,-0.18028033453413034,0.07567118132512204,0.2254407243276434
2065969,-0.0789157921424244,-0.12020680629970242,0.02384062606900719,1.5706398222186957,-0.5199538978235823,0.38265635116759983
2065991,-0.08962642274599261,-0.14897607796121212,0.03736787399126993,2.101129928097396,-0.031178704249080764,0.666031052748988
2066013,-0.08735805060568458,-0.15557457741506317,0.03852043600981337,0.9355962683530464,1.31930286809445,1.3826897106357514
2066035,-0.07326854877784987,-0.13013677062875845,0.02558536149421374,-1.102705693963141,2.593604528955349,2.326440458412922
2066057,-0.05607725718755086,-0.08660911640865102,0.006731042984829769,-2.433552074409126,2.837663176252049,2.6350823395690677
2066079,-0.04505098089140323,-0.05288410861973384,-0.006638326667222767,-1.9747846908634765,1.76170830392369,1.5684008286031497
2066101,-0.04414828883952875,-0.05005980904356975,-0.0077992791946266855,0.03323248839943448,-0.13086144208374284,-0.6731154830648851
2066123,-0.05136636621646567,-0.07818879680601383,0.002224704548067806,2.308745771971816,-1.974869569896225,-3.0049582635998333
2066145,-0.062093737202980025,-0.11852081890079537,0.01721269781006615,3.562545727608556,-3.10199201732686,-4.289571795448295
2066167,-0.0721758580989644,-0.14831964196351533,0.030189870864177442,3.3670817942028997,-3.2937629185780786,-4.128798277441582
2066189,-0.07844597494019465,-0.1555410264887421,0.03628532929319916,2.2305491410979523,-2.680889011867167,-3.005860020949405
2066211,-0.07881803807676184,-0.14314304244550424,0.03387190104517407,1.0128756770012206,-1.576712749500538,-1.7954160462441016
2066233,-0.07414327530903479,-0.12291126767807188,0.025218557646279376,0.31650405297758993,-0.43633862664676243,-1.1141196758844043
2066255,-0.06936306799947461,-0.10614736607876475,0.01581189561973201,0.29602619758308457,0.21030624523212338,-1.0176342072365907
2066277,-0.07006969906781389,-0.09784013876613513,0.010776074178986206,0.8111160290081724,0.03450183155945072,-1.2053089282903273
2066299,-0.07664255317233523,-0.0959160243091184,0.010462843886471264,1.6142957878186357,-0.7877334547434592,-1.4322077937896516
