timestamp,ax,ay,az,gx,gy,gz
2036203,-0.000769487763351861,0.013958946034258804,-0.003288914997695588,0.23954595715918098,-0.21095838017119295,0.6720412101043951
2036225,-0.001666766546432883,0.009923976775087443,-0.0019352488907330692,0.41579193261793884,-0.47181713551943993,-0.384342679152631
2036247,-0.0019472752815067151,0.0036315012715088055,-0.0005744099953844117,0.5372925492601202,-0.4301008000020506,-0.9684286442396804
2036269,-0.00127573476345129,-0.0038933775687154375,0.0006464756744140186,0.5046046824059572,-0.053563735060613606,-0.9111722457030716
2036291,9.130757040239765e-05,-0.008901799635390603,0.0014333973652198434,0.24260250347531923,0.3906233965752175,-0.4162718772223237
2036313,0.0014134951532155263,-0.008813758339125961,0.001580576388538519,-0.17109817018144155,0.5818956516756186,0.1390403419923272
2036335,0.002061633397179426,-0.0050491470884885085,0.0011894177023150582,-0.5124894539358135,0.424897257781974,0.4841697907391933
2036357,0.0018013549756167248,-0.001473785542726915,0.0005785948744404259,-0.6138037802539499,0.09165153164281102,0.5823146870600778
2036379,0.0005737795908451028,-0.0002475148699218351,-5.639217606041206e-05,-0.5441299482438229,-0.16638973909501276,0.5366775405785533
2036401,-0.0013972100451281322,-0.00016975274510905395,-0.0007988252701632185,-0.5205749162703072,-0.20516491799414655,0.42748822610675813
2036423,-0.0030703807793023155,0.000487180169314179,-0.001719872638112944,-0.6494079585583413,-0.037904910327258456,0.2640113217861256
2036445,-0.002795497107703853,0.0008448717208384335,-0.002542081751472666,-0.8504434801820804,0.19621183804038192,0.05220270590278658
2036467,0.0001579103676856924,-0.0011698771373091004,-0.0027918809835203087,-1.0534508149484605,0.2945330598053365,-0.15575800695482298
2036489,0.004039177658937055,-0.004665046438579743,-0.002175388285047428,-1.3341128673109122,0.11966151973201351,-0.2845806402179763
2036511,0.005181022882461779,-0.005278019955421961,-0.0005802839128715239,-1.742497483870206,-0.2433040312414991,-0.27856258112964477
2036533,0.0014336797680049908,0.00015627479781430805,0.0019284213139332213,-2.0757087675951857,-0.48069001720096843,-0.1484201789772357
2036555,-0.00416387229819727,0.010203631279172015,0.004213987009371777,-2.0096730000356047,-0.3178585820235208,-0.06551749605902893
2036577,-0.004310628668024806,0.0221933289099967,0.002817408153880125,-1.547319386090021,0.10993913115665813,-0.46364837280294546
2036599,0.005507089539351884,0.038139567528107536,-0.007161333319904013,-1.2539005946740778,0.19555233150441934,-1.9510226663291392
2036621,0.01985134024708393,0.06401688135345313,-0.027262123661552055,-1.8878308470915781,-0.6486417893963574,-4.878193943293239
2036643,0.025361731351169575,0.10128252725231685,-0.0497705428694637,-3.678792154272697,-2.286215658145306,-8.827756626097308
2036665,0.014058123580334233,0.14095547787286425,-0.058356936278049075,-5.93462109455329,-3.7074115724300802,-12.660784599344213
2036687,-0.003499557127673313,0.16915120129593605,-0.04011342790158394,-7.400928945141583,-3.825481349986825,-15.349313075977227
2036709,-0.002503311402869371,0.17890285448136733,-0.0011521778449789075,-7.145908256744983,-2.619043696596416,-16.90885079327476
2036731,0.0314239630251408,0.17476759185535518,0.03229091289160334,-5.33213708512254,-1.4718043674498413,-18.514597342770884
2036753,0.08060923034540787,0.1659928365418308,0.03504753413602783,-3.2767252430639404,-2.189307012490002,-21.653930346657017
2036775,0.10549989537518914,0.15786790128274375,0.007713286125291815,-2.587909930575065,-5.461353524239086,-27.005297343869454
2036797,0.08176393946347445,0.14986780333461214,-0.023386465204765106,-3.9197649221792603,-10.182783160934928,-33.92623631642104
2036819,0.024274240385899683,0.13861109621494727,-0.03246623454469594,-6.509845221324366,-14.28549701159748,-40.93277870164492
2036841,-0.02852762374898512,0.12202178570619922,-0.017709312955718367,-9.039757804349554,-16.272631670604902,-46.668301994765855
2036863,-0.05001451433871497,0.10417397374287349,0.001562275785238418,-10.760131960126753,-16.06010816494053,-50.40786138269453
2036885,-0.0431166540503921,0.09504496967968591,0.00679106436995399,-11.4404051429305,-14.57288115617073,-51.732808281978535
2036907,-0.029148485254066294,0.09859779816996703,-0.0026724692320946883,-10.40788355204371,-12.691280790995444,-50.043678506779386
2036929,-0.025461553679731457,0.09913312677715724,-0.011624677308351199,-6.455349114648176,-10.530708977029509,-44.886018803538285
2036951,-0.03322521603183127,0.06711312370246617,-0.005271806810916527,0.5699460672031633,-7.647570709045822,-37.10920237652865
2036973,-0.041793261366852574,-0.012448914957679748,0.01651230993871964,8.126446463479633,-3.90823193596484,-29.449373944903112
2036995,-0.04062131734368171,-0.11533723769811721,0.03856249559005884,11.756535445620909,-0.06111598339730559,-25.13149476229169
2037017,-0.026412419965598,-0.18724041010609602,0.042071993998248236,8.588584103098283,2.6254851478399144,-25.207135209204182
2037039,-0.0030910164716995564,-0.18637797057637082,0.01939005752916936,0.6366292542599571,3.2422304540539866,-27.21792258075534
2037061,0.019607193387263685,-0.12255117883390515,-0.01778018024216634,-5.871295804891257,1.80089965835922,-26.880645059468634
2037083,0.02860098918786728,-0.0508493914229038,-0.0447241076742973,-5.601627659781451,-0.7986289120098519,-21.70149497385744
2037105,0.01630190547241241,-0.02078348737790621,-0.043503379079345816,0.8520385429486097,-3.203163991034671,-13.447417374923582
2037127,-0.009150882376825844,-0.03248430829681608,-0.019278983893175144,7.499777482970086,-4.28108050507571,-6.917344597019585
2037149,-0.02739414870349827,-0.04765224807927438,0.0054431236312836775,9.003348162025844,-3.785173083759341,-5.636564683795668
2037171,-0.02478727122609248,-0.040361519594330424,0.014147549093639933,5.801706350146857,-2.4888318780000316,-8.587828623683741
2037193,-0.008136435526180617,-0.02613391202403899,0.011084333704997564,2.707495791677854,-1.5355185351567449,-11.588465150702099
2037215,0.0042695504740844145,-0.036740837325315266,0.011296549282868728,3.0098603690006067,-1.5094163568101606,-11.822228437096173
2037237,0.003348246316137787,-0.07625598575836322,0.0201748814491255,5.210124091473968,-2.092568882816117,-10.238595112217084
2037259,-0.004154785713603623,-0.1138706690463692,0.02820066370547867,5.752199668476322,-2.562774746111873,-9.285521651670116
2037281,-0.008692453162603765,-0.11886370364564526,0.024830864415677764,3.631016448253722,-2.4869935931479286,-9.393968559412242
2037303,-0.010234175971828718,-0.09239620153419609,0.01148484893188648,1.1787157997374373,-1.9100324957722734,-8.804590417297913
2037325,-0.01437331667037631,-0.061460791333736726,-0.0015886906002543354,0.821823420907876,-1.1101082707713015,-6.418114433452548
2037347,-0.021498835861343442,-0.04839050089734625,-0.007300231908399421,2.3095070920449476,-0.4109328667651976,-3.481521293090566
2037369,-0.025636212646547873,-0.052103779752181896,-0.006864434990965797,3.425930722126394,-0.12952699377829058,-2.028800471685851
2037391,-0.023010757883028563,-0.05657508158590855,-0.004692245964068774,2.671284103988292,-0.4018247055760349,-2.410629153912926
2037413,-0.017230819658836608,-0.05099904695844846,-0.0022629374153009807,0.6227866495170765,-0.9599824304108089,-3.0223211969316583
2037435,-0.014722944297792391,-0.038889803999765785,0.0017222422190990665,-1.115055960013535,-1.2410819765277308,-2.226067735615078
2037457,-0.017392656747619865,-0.030370472710503894,0.007297900567794374,-1.6798930964652556,-0.8484887903358791,0.021976621135432278
2037479,-0.02133520459536371,-0.02958304159002432,0.011463063080764195,-1.4927713796737792,0.10077809112989225,2.433028453198282
2037501,-0.02184603631932662,-0.03075342747375004,0.010594970993038374,-1.4266867784272186,1.0835450882105364,3.7604144684823773
2037523,-0.018552720894730458,-0.025262485578719986,0.0041215782004653465,-1.8214821027249086,1.5688155380629532,3.712297774993655
2037545,-0.015568724857596392,-0.011131632045581952,-0.004315785169053073,-2.2997655871868385,1.352886661360297,2.832463835351379
2037567,-0.016765103441919435,0.004658283995039717,-0.009521622175436959,-2.298141334395111,0.657944589153413,1.8525454588650487
2037589,-0.021216285409944007,0.012289980702287406,-0.00889084853008116,-1.6390990434895962,-0.026680386149112813,1.2051978203298659
2037611,-0.02415602355932343,0.007113522477274785,-0.004035736075349236,-0.6632520021218058,-0.28913991086751784,0.9771585274948854
2037633,-0.022419296946570806,-0.006989770767053511,0.0013596418225481919,0.05682184698840263,-0.07744812309342063,1.1082591456510538
2037655,-0.017545905982425097,-0.02046621652209903,0.00458161226587673,0.12447165660100529,0.337642930744871,1.4901790316583061
2037677,-0.013202432150585782,-0.024816834679205126,0.004870223326711326,-0.42806987754794085,0.6395558729697947,1.898664481198668
2037699,-0.011356741764360865,-0.01852128771049181,0.002653728862702238,-1.1944902319715782,0.6594472506876528,2.0122805041396226
2037721,-0.011897072436571067,-0.007302163958596751,-0.001209073447239601,-1.7118799168362142,0.37154955814663093,1.6500531345219378
2037743,-0.014243985121014806,0.0013221326153108792,-0.005602346200673476,-1.7634386480265662,-0.14410823308544737,0.9853773810877781
2037765,-0.01765278667893508,0.0033671456343545665,-0.00907470792740597,-1.4177888443649644,-0.6871826060147534,0.44928642946957953
2037787,-0.02065996189601402,-0.000779862390529435,-0.01000669363543158,-0.8911112131048061,-0.9978646397897151,0.38194864393399997
2037809,-0.021711779625115193,-0.008025467684663614,-0.0075755939520245055,-0.4615741007806596,-0.9485543295785757,0.7551592919227262
2037831,-0.0205028905299744,-0.013778185090406863,-0.0030073194581462033,-0.4042721402801214,-0.6755308263564627,1.2133188722271155
2037853,-0.018194527234757955,-0.013862687293612612,0.0008050653749577328,-0.7889845379594397,-0.4563301824759854,1.4027919127878348
2037875,-0.016319668965578932,-0.008024528362876303,0.00183860474826974,-1.3058559556518026,-0.43542794605594204,1.2878879517901491
2037897,-0.015580010211436946,-0.0011475231145279844,0.0007963084164985135,-1.4670270262864142,-0.5087608834927505,1.1137431003996892
2037919,-0.015528348054602108,0.000944853907863653,-0.00027096943065234584,-1.0895513499407685,-0.5054721948905215,1.0437331504570642
2037941,-0.015463230964595611,-0.0031059275938938352,-0.0005528462288034137,-0.4918382017250517,-0.43806698728747884,0.944668711140551
2037963,-0.01571154106259586,-0.010050604910588555,-0.0005879898317339213,-0.1398216080963305,-0.4870971051639554,0.6394453459438899
2037985,-0.017524195088648293,-0.016360363608998032,-0.00038565252036566305,-0.19556971598266698,-0.7278678124492818,0.26422126351658853
2038007,-0.02129242414003596,-0.020739407883594935,0.000948733031434567,-0.49607358236137367,-0.9760339355205144,0.16561680143775506
2038029,-0.025386658905542068,-0.02275610474781297,0.0035035836901123074,-0.8527191557727859,-0.9838248284836332,0.44690028827044426
2038051,-0.027432151858234416,-0.021455790987219687,0.005635251759036965,-1.2025292177952014,-0.7326147418203312,0.8110070302620752
2038073,-0.026579207485619812,-0.016406134859077832,0.0052857930118734645,-1.5013325590391384,-0.4469157107553271,0.9075923711256508
2038095,-0.02407692308644328,-0.009024475729880091,0.0018148863520507923,-1.6445975411587737,-0.3483920648521614,0.6769051446409226
2038117,-0.021822991183788772,-0.0021428135023704607,-0.0034367172429171687,-1.5596851694066955,-0.46890587520127486,0.2870617529874254
2038139,-0.020901777231951746,0.0011163696660013434,-0.007699864837368637,-1.2952214697964108,-0.6833826202658169,-0.10113777468266753
2038161,-0.021454383757267246,-0.0019539627840800024,-0.00791301530822551,-0.9660337411629375,-0.8467663433899942,-0.3938272307773387
2038183,-0.02321082550059383,-0.012451548466288292,-0.0024875263339626105,-0.6490564535690475,-0.8893087854241365,-0.526620208447867
2038205,-0.025682243895035508,-0.028191626372556927,0.007099011790819324,-0.3567257884346734,-0.8388461162156848,-0.519679103579357
