timestamp,ax,ay,az,gx,gy,gz
2261835,-0.0011210483752409424,-0.004090793727364995,-0.004279875710130075,1.0761053488757863,0.2932506874200883,-2.8421848756936723
2261857,0.00022212677536960165,-0.015668610810683967,-0.0024775919639221395,0.47563333017946996,0.13159059686424965,-1.7384574518171252
2261879,0.0024762128379953955,-0.018100029317561647,-0.0017009142575986373,-0.2875991322088651,-0.015505683240499323,-0.7687526565483311
2261901,0.0048033183071010494,-0.008392896013868984,-0.0026234145327908437,-1.1023400928719556,-0.13974724912987002,0.05484690024615874
2261923,0.005215112825979855,0.008420868124443221,-0.0048028677350525194,-1.5781705890635898,-0.21534574362689304,0.7691988240996293
2261945,0.0029212904562954333,0.02251211851291828,-0.006216737112513684,-1.3497636370373587,-0.1980849640792098,1.2819957933612927
2261967,-0.0005571446484428321,0.025239897656868304,-0.004215379391304987,-0.4516754418777324,-0.08822069599705408,1.3731352481529786
2261989,-0.0032373902117309224,0.014640216147721392,0.0022140243288048507,0.5906169122457074,0.022911657693644283,0.9765273459873388
2262011,-0.005090301842404415,-0.0028324239905878944,0.010659820164666715,1.1143639927540856,0.039181868851107686,0.43147712353808276
2262033,-0.0074934542527795005,-0.01642742347399643,0.016106064666452792,0.8666760887931084,0.028065014622187492,0.31272765190673624
2262055,-0.010248021694078437,-0.019150440509421673,0.014501669796505124,0.22926990057192814,0.24265272126499568,0.9029570876105216
2262077,-0.010301455630380114,-0.013267178116643543,0.006198151411098355,-0.15128303946962743,0.8744772350495698,1.85479351334021
2262099,-0.0045167008530048736,-0.0078089241071341575,-0.004164901143184664,0.00598805514514051,1.7468537566237465,2.4859553554381133
2262121,0.005996060313293481,-0.01005199705585029,-0.01133701693316059,0.3726437598052938,2.3122685165674266,2.4835336689937186
2262143,0.014930856589759924,-0.019338981357859462,-0.01308644791438335,0.40613616419496346,2.0579604293631295,2.266357980619834
2262165,0.015586125821263338,-0.029474717299817477,-0.010729758071404132,-0.06804467297511434,0.9887757645197148,2.542578451076021
2262187,0.00769869861154301,-0.036532007218012245,-0.007107600553402512,-0.74756304118259,-0.2992983321641951,3.5118847196571132
2262209,-0.0011208839359843252,-0.042672995937117236,-0.004529611907542931,-1.3118138640662116,-1.0917282958047554,4.666847116326584
2262231,-0.002248325441376074,-0.05197927696467627,-0.003888463200865826,-1.844319797314142,-1.1384721551779322,5.5231241669304
2262253,0.005533604883969432,-0.06473091176228961,-0.004304987228013167,-2.664738428073554,-0.7537008762502453,6.464679592799546
2262275,0.015326300275257549,-0.07728974219841656,-0.003157906656781029,-3.8113089796209048,-0.3793881595741516,8.601493796177794
2262297,0.019216564466389446,-0.08529406349025254,0.0021583359519851382,-4.923338442045048,-0.18856261301857302,12.552172466269072
2262319,0.014825666217421811,-0.08424197619739046,0.010736012014218314,-5.726575860021156,-0.17635312533127223,17.29748738050074
2262341,0.006097734534319327,-0.06971612415033172,0.0166894712441771,-6.419986833580202,-0.47790038630946374,20.392843312068848
2262363,8.830639919198146e-05,-0.04333417661327361,0.013613287933976983,-7.364574595191556,-1.3929870337350678,19.71731208270564
2262385,0.0018439330198025488,-0.01878744939011592,0.002283633630575536,-8.538112217922396,-3.0972611771397167,15.477379663994341
2262407,0.008368342642897063,-0.013365730946735203,-0.007177687174957406,-9.607353992303633,-5.4155161062270105,10.589450029103325
2262429,0.006970949354672143,-0.026472596427701587,-0.003546923273944816,-10.452974763636155,-7.768838514079964,8.669581289690628
2262451,-0.015424600061476649,-0.03152873334725707,0.013816397736420016,-11.129250718504709,-9.13123145671325,11.14919913204917
2262473,-0.05645335736459842,-0.0009014993907528912,0.03271829711500705,-11.091324316199053,-8.161063772397265,16.30688184895286
2262495,-0.09298432068446338,0.05771585991282988,0.039068693611902135,-8.984176993065939,-3.955599919027364,21.285394467612008
2262517,-0.09732653547454878,0.09899895977593744,0.029769878951269306,-3.973334462669827,2.804447741220885,24.799995629545325
2262539,-0.06262986581732484,0.0830479673865552,0.013986735021290662,2.568281868409058,9.555115584309794,27.469655539239948
2262561,-0.011654874988338611,0.018121240021813548,0.0030695909071474896,7.333915793713944,13.279540390935825,29.91724524771654
2262583,0.021459351902690896,-0.04701618214784624,0.0014253497396998272,7.681612495100202,12.749048969391538,31.592770915707103
2262605,0.018940778371286254,-0.07251550746802797,0.006485624761317327,3.9986507090783188,9.498690045847079,31.768695425983136
2262627,-0.009227437456007933,-0.06238944496068459,0.014061108138371685,-0.7929503393178039,6.526102852119665,30.909495702073766
2262649,-0.03799881208217549,-0.04933495940317609,0.02146652516430674,-4.118722749302638,5.878772147616257,30.305368958303845
2262671,-0.04938165435808406,-0.05176816851412993,0.026369112659771318,-5.957703910891033,7.2744822860574505,30.428936348717887
2262693,-0.04406734150022853,-0.05256403294297373,0.025135378057527056,-8.130873517460861,8.83538732674625,30.176407851047603
2262715,-0.035223082119155036,-0.02136299543384609,0.014516825760150962,-11.627290753744855,9.044866566994113,27.971579726315017
2262737,-0.03357480697113217,0.045811017457681694,-0.004076283910621295,-15.020769339515594,8.004507322850339,23.452156707090726
2262759,-0.03847262088303583,0.11420252195312923,-0.022773473251660955,-15.789724179838862,6.9524074091567005,17.989100134994775
2262781,-0.04095216419557344,0.14046750101662203,-0.031850326812337494,-13.082930406529227,6.853691773022084,13.785421153898682
2262803,-0.03319600839406339,0.11509324837316116,-0.02788359736823095,-8.819179140991741,7.612533051657645,12.495995379301087
2262825,-0.01565196664221458,0.07321325129819861,-0.01739764447766903,-5.882483172465223,8.418078772936857,14.191558778936834
2262847,0.003139548538024847,0.06161639734109156,-0.011525939437017848,-5.407965181087932,8.510495500943973,17.220746578967166
2262869,0.013581191095668611,0.09481591895567171,-0.016490698426123638,-6.061003974720066,7.6366755864332845,19.383192413567546
2262891,0.01271467875981998,0.1454568983197625,-0.029155129290801465,-5.874112824866527,6.105574489323979,19.71309933004741
2262913,0.005342746524800741,0.17729921689836378,-0.041451797005696504,-4.369610693246888,4.6118297677433535,18.99926285591874
2262935,-0.0010940775430600133,0.18084821471478674,-0.04824000597345866,-2.6259428677281975,3.882507538163909,18.393838382355074
2262957,-0.0017433342333753644,0.17241305599119752,-0.05029176366847122,-1.634772179307433,4.217714307201138,17.994141817673064
2262979,0.0029834009208786535,0.1670413663249462,-0.05062512358942382,-1.2562869041332747,5.235312293409476,17.137575811735054
2263001,0.007316131137465573,0.16436869894750428,-0.05007925063380639,-0.8275614066913405,6.161853373299449,15.472595901873914
2263023,0.004872487710291212,0.15814077338548405,-0.047413211339394495,-0.13593342648077633,6.48086396202933,13.067091006729623
2263045,-0.0036698413965346116,0.14688151964795068,-0.042284967892364744,0.544402153319243,6.2200883991411295,9.838727032411885
2263067,-0.009581046606524047,0.1322806306382207,-0.036158669004314935,0.9284896331139763,5.556759423693675,5.651075698830127
2263089,-0.0055919967101007995,0.11555074759187524,-0.030181749138013123,0.819553925964652,4.365176950253789,0.9578334361740294
2263111,0.004995403588012695,0.09993719403834779,-0.023804501797896838,0.005429160649286557,2.4192972161438995,-3.2144142315632735
2263133,0.011312804624345765,0.09179135846890461,-0.016457096021144632,-1.4736965830231419,-0.008774508636918726,-6.034268040231492
2263155,0.0064343606204574,0.09403944461816643,-0.009497731945960146,-2.9774871864320085,-2.0361055201189755,-7.271269960291487
2263177,-0.0061612073062136,0.10086519314933924,-0.005172328601946644,-3.5841001787175473,-2.8162724182042247,-6.990246987962107
2263199,-0.01744389683454772,0.10361937995285708,-0.004222158091364125,-2.922772013003128,-2.247048148934539,-5.395964281251509
2263221,-0.021879418353354045,0.1011930072107083,-0.005793829246609677,-1.4715196024763844,-0.9668029156377413,-3.17416195589025
2263243,-0.02024024374500136,0.09987970279748602,-0.00929782909912978,0.10710149728727984,0.28313306137016053,-1.4912704116708506
2263265,-0.01493956230826469,0.10252381118583778,-0.01489913288146772,1.6796362618367917,1.1638388614987254,-1.2105807837153664
2263287,-0.00597370604047849,0.10290829637238702,-0.022071503244873864,3.427246817493267,1.6119322967889325,-2.215770310376978
2263309,0.006770450454717172,0.09422080395394966,-0.028841576945393046,5.0901309925743465,1.4346520160043723,-3.690254332769414
2263331,0.019070953999277947,0.07959339853490484,-0.03277555367207891,5.87833717091829,0.3308589768995086,-4.848609447789907
2263353,0.023262430735353227,0.06882866831443142,-0.03205897715034554,5.294064625123498,-1.6135544601493215,-5.185309764052953
2263375,0.014546075970262464,0.06565856580957327,-0.026021001577363194,3.7467962832540422,-3.697553185591721,-4.394110243865995
2263397,-0.004024385487072334,0.0643495321402454,-0.01614844382707652,2.1302049047503386,-5.14942128672644,-2.7311307855144267
2263419,-0.022992848169038918,0.06005845190835974,-0.006818724468789637,1.0198747113239472,-5.941762652081933,-1.5698291893523337
2263441,-0.0335394083771323,0.05626979365835376,-0.003217464588863307,0.529799857301888,-6.908630810631077,-2.9458144042758008
2263463,-0.03435730300032031,0.05812342244124422,-0.006976745083175919,0.6956812413499004,-8.831626204270165,-7.824011895667895
2263485,-0.03169914055947716,0.06268459379726084,-0.014192981269125524,1.547166961791087,-11.276190412462457,-14.589018145587225
2263507,-0.03212729001659715,0.06130481625846621,-0.018782766941119695,2.7665490132333437,-12.50322177651335,-19.552699743841266
2263529,-0.03601737734418848,0.05102874549316466,-0.01799735433079014,3.6093341710166036,-10.91457244029989,-19.52597244826953
2263551,-0.038927016815066544,0.03957487244334816,-0.014292944863330851,3.4118480629101966,-6.713138520111916,-14.327827565304835
2263573,-0.03795520469655256,0.03739794753775043,-0.011951791407283672,2.195293044848796,-1.9126795266007868,-6.852110813279432
2263595,-0.0348348594646182,0.04643244002585347,-0.012638192301793546,0.7002079737987454,1.3962957566471892,-0.6714250866213114
2263617,-0.03270918929162917,0.05829777417270185,-0.014674327263468782,-0.2250502291473127,2.635085468732151,2.3776231040515414
2263639,-0.03157972510289114,0.06329817205532845,-0.015935400421716237,-0.29577395043442267,2.642031011147882,2.5828372464271028
2263661,-0.02873624087855713,0.059942139833911764,-0.01621264199371164,0.10981690320738098,2.4044598515621,1.1825401564263087
2263683,-0.023546211225840337,0.055249886752544754,-0.016470959629613386,0.45433145900513966,2.2098126443829305,-0.6336024472967978
2263705,-0.019546803685152034,0.05660896407060151,-0.016780130425705222,0.5771325881616501,1.8871098912071727,-1.922388856883417
2263727,-0.02034707156384278,0.06425541648396321,-0.015982710864901706,0.71352490289014,1.3636217443724807,-2.1292964842794424
2263749,-0.02482984449753895,0.07140406783064997,-0.013450901076081215,1.0489169968705612,0.6260436953779253,-1.6077122308583827
2263771,-0.02808435104106592,0.07046887460270078,-0.01045935469248148,1.38791471766805,-0.6662453728890753,-1.7333507506994212
2263793,-0.02647178774276884,0.05881453162551283,-0.009079086540747124,1.3667202378828407,-3.0027984152844174,-3.839591661482757
2263815,-0.0207404714598413,0.03999749782629485,-0.009683930714908478,0.9429505255395638,-6.276416139351852,-7.755125326985222
