timestamp,ax,ay,az,gx,gy,gz
2310961,-0.00356152171147458,0.016234155919032107,0.0008920280443290595,-0.2573228004351584,0.4109252886195608,-0.4084104906284402
2310983,0.006448531414871801,0.014393288637514814,-0.004309288555140499,0.9881213089843004,0.5322355592823133,-0.07275396807343096
2311005,0.01140969764465007,0.007050704675781331,-0.007385884454078043,1.7170536130020915,0.341483828802307,-0.06719999550024201
2311027,0.008810137082423113,-0.006117606588786555,-0.006749373679939329,1.6206282908180922,-0.1897610142354013,-0.39920259076588227
2311049,0.0005052893016982318,-0.01887569778259419,-0.002362640199605039,0.7531291452979473,-0.7619395813172237,-0.7195256006573039
2311071,-0.007930960157058933,-0.02263212617959026,0.003562516967614058,-0.4731952178012431,-0.977221149345103,-0.6458427790839459
2311093,-0.011046678892129402,-0.013891597937261808,0.007524977654399299,-1.4256880471552433,-0.6678529227440964,-0.110696413801627
2311115,-0.0076730577048331585,0.0007923350634267962,0.007277553389122652,-1.5461509867328727,-0.04936501452269838,0.5816523256831639
2311137,-0.001261245394055866,0.008191664759337209,0.0036713687343874106,-0.7750187727699197,0.4470756675839997,1.0009141020752823
2311159,0.003752473079045416,-0.0003440110001644102,-0.00037585807724278846,0.1970370980180731,0.5218016197321748,0.8853502664958981
2311181,0.005267674293742322,-0.01967678828851849,-0.002860180448230213,0.31872912373888224,0.216028975110856,0.3199011980825543
2311203,0.003519828998248115,-0.0350413464249092,-0.004194939575045765,-0.811057298604852,-0.19139395651901697,-0.13137789226866306
2311225,-0.0007145851402127652,-0.03825525811116637,-0.0053719681435121696,-2.259820436055371,-0.45650171862876154,0.5821407461525406
2311247,-0.006927405756703877,-0.039539373143583675,-0.00509045245675951,-2.5459320947670414,-0.5139806480799217,3.381815839226693
2311269,-0.014043769344897282,-0.05929001173865841,-6.741926271283289e-05,-1.6951075982942905,-0.3655099732494924,7.660663334267614
2311291,-0.019032233975786725,-0.10367535578026996,0.010542640443581913,-2.4806379325314825,0.08672165443464608,10.392518010486242
2311313,-0.017027336677159603,-0.1481825692497973,0.02135696972061083,-8.6390953995432,0.9521809686096271,7.771659170825172
2311335,-0.005116149462338092,-0.15170092202898097,0.023498998334429953,-20.727967016519976,2.0370031864804004,-0.816721180971884
2311357,0.01175698937007676,-0.09561459033056734,0.013151591755235286,-33.75852316003007,2.777049272158317,-10.374400448567147
2311379,0.02006437473370158,-0.011493338713397267,-0.002608181982350826,-40.167949294757946,2.7432767152811635,-13.284248431266866
2311401,0.007770057553464178,0.0367733553883898,-0.010190013884284008,-36.28801257377822,2.2402620620161136,-6.070730827546016
2311423,-0.021612997169823046,0.007845657644444434,-0.0013946769035853533,-26.071940362658673,2.139225155918901,6.756020784046493
2311445,-0.047064002929873526,-0.07570880637025686,0.018295045025763276,-18.096714081787482,2.926894532266023,16.20627981701033
2311467,-0.04707892945247737,-0.1420670832718829,0.03381493765948221,-18.45633749741245,4.044031499894437,16.491189325191904
2311489,-0.021820958075800208,-0.12896125257271646,0.034406447914456136,-25.903470832424567,4.372256278273781,9.298148017069611
2311511,0.002614906058308366,-0.031947822468086244,0.024281132298673014,-33.13948137680355,3.402540493948618,0.8196957366465901
2311533,-0.0037979509340291895,0.0984967488420011,0.01838900220068619,-32.599978257258684,1.8834730854869808,-4.495537580109262
2311555,-0.044787719690625304,0.2003931897355719,0.026207931466338454,-21.709219029460918,1.3720824768738173,-6.435508283531319
2311577,-0.0894070625163868,0.241666968721501,0.040488666288938345,-3.9071580422134553,3.1478353160423636,-6.12051554822826
2311599,-0.09692195537531441,0.2297471070111047,0.044033333250939555,14.212144791212324,7.319971683399442,-3.022868335323003
2311621,-0.052505004975512026,0.19268010146852896,0.027712022366677178,26.698193038949288,12.64721796615191,3.589042667477473
2311643,0.020409174034933912,0.1556227961216439,-2.6904277264064476e-05,30.65266137241218,17.15417974092704,11.382681556643014
2311665,0.08069426846045875,0.13203807032143292,-0.02188161335890499,26.864379634912336,19.29074854861178,15.379776186202088
2311687,0.10171111293564579,0.12713253686838144,-0.027931634481261455,19.02006022978684,18.999497363286363,12.405317091019809
2311709,0.0885664354633438,0.13801058526870746,-0.022300595874582586,11.512121136625693,17.76754492607444,4.450335758370986
2311731,0.06973873952061588,0.15010620795887858,-0.015908028777488183,6.480686869295728,17.212039766998938,-2.806072959406958
2311753,0.07055033830919175,0.14696895666447535,-0.015483312634011773,2.4548926329800898,17.252752026354607,-4.697826045613396
2311775,0.09047455156773584,0.1317121705419407,-0.01999958849011404,-3.2726488014805017,15.986116458151933,-1.0352610692427702
2311797,0.10684189287962402,0.1285827436621922,-0.025403005536444142,-10.374213821708294,11.895968615636574,4.6052331597732294
2311819,0.10214142287894215,0.15239676057522084,-0.029866543858466967,-14.484169955655403,6.017910198691862,8.788965749813974
2311841,0.0835876144216261,0.18430164333057672,-0.033528811145538205,-11.546730149336902,1.2451075454334748,11.15293855525168
2311863,0.07198306871747857,0.1912765303794913,-0.0350315392079678,-2.7705959585418265,-0.6189052501295808,13.301660681607661
2311885,0.07530251146141916,0.16645009355728885,-0.031037077103081467,5.920761542189508,-0.559242373004991,15.62943970163425
2311907,0.08042756973085392,0.13694981900688763,-0.019956818930971953,9.54290838602805,-0.864058916683288,16.526861907418166
2311929,0.07169955948211328,0.12991603518825393,-0.004906033926894262,8.374511964368624,-2.433577909872612,14.763075000039068
2311951,0.05137462299143013,0.14150125199868144,0.00831199305659389,6.45512316196701,-4.100983400514182,11.392595162392249
2311973,0.03677238189327524,0.1464277661931326,0.016260194250155683,6.70833431032167,-4.441758690953162,8.61346802586024
2311995,0.03943212101014038,0.1319880153454549,0.020460990962542887,8.453824118794024,-3.5477244864703983,7.4168066929078975
2312017,0.052589777872123024,0.11202222812921306,0.024971864062556394,9.385449723153442,-2.6782655891843716,7.055088329210074
2312039,0.060439409784221715,0.10649577458058301,0.03182492827372932,8.71843316026147,-2.5741523349815485,6.397911028851652
2312061,0.056309403786163816,0.11644191565274863,0.03881726792415005,7.711424859385005,-2.6427470208571484,5.074150857120963
2312083,0.049033471074924534,0.12481562328120269,0.04133217137538377,7.70811652998357,-1.8289651904029811,3.3896983668088883
2312105,0.0515513166955639,0.11755007110156869,0.03654431141693965,8.54670175980116,0.0010776849839944716,1.7313147046598965
2312127,0.06490015798174978,0.09743603803303276,0.02637775760542205,8.95745196078433,1.7447319600161055,0.25646761340671825
2312149,0.0762091450171996,0.07793844667047034,0.01596576395641106,8.042358084639192,2.187772137766514,-1.0354228157563736
2312171,0.0742039223385049,0.06804868203118683,0.008646324911536647,6.136987251162791,1.3568711702781144,-2.110791612051026
2312193,0.06378954796421978,0.06483022248771086,0.0030751913290684493,4.35806300271512,0.5045099978902123,-2.864659409348093
2312215,0.06045300313020675,0.059017605337407304,-0.003932789872609279,3.4543944662813324,0.6533554991192274,-3.262297552199079
2312237,0.07072898048444148,0.046570101781733785,-0.012400453449859496,3.1454651688757114,1.4393420632979947,-3.3660918446296626
2312259,0.08369607489003865,0.03431277136806389,-0.018462588626915605,2.6109704711459654,1.6607376310647293,-3.1625667946979683
2312281,0.08402645157211573,0.03288031547501555,-0.01870096833479436,1.57172386798363,0.773920927438024,-2.567914105349286
2312303,0.06972331558208071,0.043429096845248746,-0.013769903906757351,0.6849225282181575,-0.5263619793135156,-1.7234386661041177
2312325,0.05343766691920492,0.05381856563085901,-0.006979922177852482,0.7383416245893385,-1.209570892798317,-1.0570346063976803
2312347,0.04748266391874528,0.050743654618610946,-0.00049856201931046,1.6186230433574995,-1.0527906642546794,-0.8553630532890253
2312369,0.05131515303376029,0.03452319145726508,0.005539402795800348,2.3686678743892045,-0.6763819733647997,-0.9308066458816776
2312391,0.055348530747577465,0.01888548485704742,0.010582729713625085,2.301440668675919,-0.601633016336011,-0.9161441726987811
2312413,0.05415899252504896,0.016023992812741104,0.012397395026280573,1.7965171478270883,-0.6160323068393855,-0.7977310679050091
2312435,0.05171152618635849,0.024150527638000487,0.009546735006155334,1.8047116042534022,-0.20554854431909572,-0.9334407908694544
2312457,0.053734511061687494,0.030490534728450206,0.0043339382862370044,2.6831179847868403,0.6242618515246727,-1.516680202350986
2312479,0.05922797435369781,0.02502807879094621,0.0016838955524363954,3.729004528810684,1.2551604855518472,-2.1931750078025636
2312501,0.06172080226011225,0.010405357733024688,0.0046069893293829624,3.86936457330442,1.1712084595638363,-2.3301878107025495
2312523,0.056995582792129254,-0.0008346759959791895,0.0112084599787546,2.701127406926846,0.5595849251846662,-1.6439256281308354
2312545,0.047803613201597955,0.0019006306025547573,0.01627567913324541,0.8782174173256727,0.12663532934561295,-0.5186125567370219
2312567,0.04164202503225061,0.01729500960204183,0.015635676603267003,-0.42631601924105145,0.3991907528194404,0.293412273937967
2312589,0.044642362554438854,0.033169991353657294,0.009394106521879473,-0.4846993680968824,1.2411379570267318,0.3189723348703409
2312611,0.056718688482923794,0.0379230678518435,0.001713297753901109,0.4111028144902113,1.9890577544397692,-0.21887014733810445
2312633,0.07119386054536685,0.031304970492251775,-0.0024258932837605963,1.2763236009612056,2.0098072165505965,-0.6290148382923645
2312655,0.07889867517689425,0.023525047430419443,-0.0009887301190581368,1.364009461133392,1.1893057940106189,-0.4437080032124108
2312677,0.07442281267171674,0.02390508063777157,0.003655216871875829,0.8163776511320924,0.016997043995598926,0.13859735732669068
2312699,0.06083123117316587,0.031154419604051308,0.0068519730036514,0.44623242170030086,-0.754649631175363,0.5316100036804198
2312721,0.0484921183861308,0.03508305949876509,0.005845040233323872,0.892372945866227,-0.6686498852143163,0.4078812700976483
2312743,0.04678831561440821,0.027803916814443563,0.002365358722497846,1.9408514606278346,0.03228307051162403,-0.015230868405516712
2312765,0.05518544217176706,0.01296112815483952,0.0009504473167494172,2.6665447908960647,0.5561610950501232,-0.28292914899539634
2312787,0.06345310861778064,0.003034654201252356,0.0044211990108932505,2.3267874599605944,0.27305224908393183,-0.17931724712455344
2312809,0.061969297160825464,0.006845850540063452,0.011074702049716594,1.1519584671634446,-0.650794186412379,0.11882476645522932
2312831,0.05113361107754733,0.020322041449966986,0.016430660872614657,0.1717643495189271,-1.4035787766506418,0.26995354643438846
2312853,0.03983290623764844,0.030461343266181645,0.017523575901649113,0.2183788592444441,-1.3389088246819407,0.0863679335281516
2312875,0.03579311043886279,0.027856536962312772,0.015277654165194072,1.1737253035010529,-0.5468946479749915,-0.32368479938384065
2312897,0.039025025553260914,0.014362390552863941,0.012995942741724881,2.20296745826496,0.39665781523067645,-0.6418303985424826
2312919,0.04411786720348838,-0.0006518465872015532,0.013198827545296804,2.5682465935035275,1.081065378184313,-0.5514735101421654
2312941,0.046619362774854546,-0.009656842182492655,0.0161248552655225,2.1219033221022965,1.5198274592489316,0.06199116434969697
2312963,0.04633070647635915,-0.01264875381002739,0.02053190833365452,1.1910925786215099,1.8852716586008684,1.0319823259380172
