timestamp,ax,ay,az,gx,gy,gz
2318001,0.010022582427953458,-0.02671905170358222,-0.00956721524514461,0.76937615931921,-0.860850320408755,-0.40090023896784555
2318023,0.003678298711646179,-0.002804709697980101,-0.0015794420780422952,0.00782971104687849,-1.2100962395975667,-0.03272577188801662
2318045,-0.0021501484485460004,0.01179126090179015,0.004465477934022749,-0.1314327466585024,-1.337534389302493,0.15635431054507465
2318067,-0.006434232885394126,0.013224542309766801,0.007441833081101806,0.2894522867840891,-1.1087219745695325,0.08252327390706928
2318089,-0.007860844082163417,0.005587144497853073,0.007290019559737972,0.6224418395511141,-0.548547726871334,-0.17427534631975714
2318111,-0.0059698559846961445,-0.0022566193196749277,0.004798373447134728,0.37774630016196936,0.16440082758511687,-0.38010706955801105
2318133,-0.0019643003496936703,-0.0038373260630226377,0.0011876048161149184,-0.26428296912752397,0.8077491656193441,-0.3052672624959605
2318155,0.002101608941499317,0.0002063922831580209,-0.0024864275070098072,-0.7182744049886006,1.2377952565209673,0.0387495629922163
2318177,0.0048931688271244235,0.004437367537727885,-0.0057964544506467685,-0.6371813301546214,1.4137121785111508,0.3492055719792681
2318199,0.006189864306339195,0.004823575400711622,-0.008662566759547937,-0.18791593348395358,1.348092423126428,0.3083077733328883
2318221,0.006092440424165341,0.001953945250266799,-0.010564003212150482,0.22017270535310615,1.0927951422178048,-0.07748009225225964
2318243,0.004760392393823277,-0.000944196292650377,-0.01046573413273274,0.32675925928876837,0.7675556580737661,-0.46687988206941855
2318265,0.0031633744163992164,-0.0015460128583815137,-0.007936844914110779,0.15406440688215345,0.5313907783810374,-0.5305905343623628
2318287,0.003214024006555049,1.6594607209120005e-05,-0.004175186278080922,-0.10316129619817403,0.47237573613196143,-0.2748036927985011
2318309,0.0061133355327166634,0.001739148036256466,-0.0014068259260382647,-0.24831140289891185,0.5309562737439527,0.0014030386777132073
2318331,0.010431245353003606,0.001171778235350994,-0.0009806646679194008,-0.205986479842592,0.5592139610172483,0.03878568474601515
2318353,0.012543497218003978,-0.0032196879309815876,-0.002177368355511309,-0.06037556722671272,0.46772001303156685,-0.13305291783116477
2318375,0.009655947878582651,-0.011383498696390569,-0.003112328594802377,-0.0005155384054731996,0.3156581686492815,-0.26140464476369396
2318397,0.002603042503543811,-0.02177050731392741,-0.002751349033314963,-0.21089117178516306,0.26055832618423097,-0.11806856102703554
2318419,-0.004437068888463752,-0.031430005401416536,-0.0017777501297355405,-0.7694828668229262,0.4159442188889896,0.3534614511114338
2318441,-0.007215946891412039,-0.0361772149271071,-0.001466343094405765,-1.582290141640107,0.7421719437293073,1.0949106475453656
2318463,-0.004701203766386989,-0.03284209811947579,-0.0021291336977333633,-2.3851529366588666,1.0702133848244142,2.0486993224993997
2318485,0.0005954038135567677,-0.024250909181351574,-0.0030741618744457517,-2.9178690555583824,1.2427410882922196,3.1314930482487777
2318507,0.005252235325073245,-0.021819313511230825,-0.003936000264457326,-3.3117044151649133,1.2339597606399086,4.058393456259186
2318529,0.007600937861189905,-0.03829515356071568,-0.005511291916632611,-4.37688547214271,1.121376948906308,4.27665760873004
2318551,0.00789754038006222,-0.07245543671832465,-0.009027674948143657,-7.241481274321741,0.95604830151525,3.2681546511517974
2318573,0.006752502161438436,-0.10153801170249402,-0.014732709334135546,-12.293839244779143,0.7112667739921997,1.0720963859692387
2318595,0.004379970756959705,-0.09575670594856263,-0.02131714037958856,-18.333899519486806,0.37860018720565436,-1.5158673702786432
2318617,0.0013523686942999485,-0.04614562935548486,-0.02674823170292025,-23.020134484520376,0.049310951046694716,-3.4308556914369497
2318639,-0.0007524706009669236,0.02249217436960711,-0.02988831732492718,-24.546218138993538,-0.18891981778690348,-4.208862866562554
2318661,-1.4304712242591908e-05,0.0696340612550219,-0.031420912172615285,-23.116330560148906,-0.4484131731120671,-4.462924377649371
2318683,0.004134129966345509,0.07192250073363275,-0.032689951104067805,-20.79874510676435,-1.0626372080332722,-5.397326552232696
2318705,0.009180195011864303,0.04065620370314348,-0.03317235593483003,-19.828366217443577,-2.3154712964871593,-7.5968126537921625
2318727,0.009674052548199221,0.010838877153224059,-0.029809598534228807,-20.833284849126645,-4.070552378942675,-10.123381249028096
2318749,0.0011312295751420602,0.01318722371801872,-0.020048048349270833,-22.41696720553324,-5.642885439624735,-10.920570553906176
2318771,-0.014219181705600428,0.05030378962932521,-0.005625241590663058,-22.358581975407276,-6.115032943020172,-8.440310174458519
2318793,-0.02617037098915433,0.09447159181453248,0.007473064285798326,-19.551515762149933,-4.968235331662741,-3.211661961580756
2318815,-0.02355388777938651,0.11167042872910413,0.013146123911695673,-15.23559266267556,-2.607861181516442,2.040724336640664
2318837,-0.00471405643080775,0.09455723324809726,0.009391026533476387,-12.291297660774024,-0.3386612801386692,4.087849840114329
2318859,0.01812456520269535,0.07225697043348205,-0.00045993896182789187,-12.724071270443497,0.3563957393388382,1.7013710932457289
2318881,0.02613545841963277,0.0821154096942217,-0.00944673811455645,-15.415105553269203,-1.1043354160573675,-2.937149819465205
2318903,0.00929635860022912,0.12953639018794152,-0.010863124742515304,-16.607840946132313,-3.726184533366465,-5.425073041810465
2318925,-0.022394192568953624,0.1794017917250503,-0.003180078936937288,-13.146740008277119,-5.412386961672102,-2.313251344882057
2318947,-0.04479447710795367,0.1901785928725387,0.007563383583324346,-5.458146936759165,-4.539970314905019,6.361148300783574
2318969,-0.04085994713910081,0.1547521368392856,0.011635449446423633,2.6865179845409415,-1.4165915885479694,17.24144604586393
2318991,-0.016858132391806776,0.10478006036467166,0.003693303837651045,7.346106391852253,1.8801304603866669,26.040956578006504
2319013,0.004619254688188289,0.07595555651801866,-0.012546894578820857,7.451867661769821,3.3514954533427086,30.129132329668735
2319035,0.007298312162318883,0.0739677607521823,-0.027862251964828458,5.058562299085407,2.8037381962955585,29.736536691145126
2319057,-0.005979603727055914,0.07694028138179272,-0.0355623026949563,2.99777562322077,1.6737330311973742,27.32861254545452
2319079,-0.02194016129484579,0.06527055786314193,-0.03595398491338335,2.4848515381987717,1.3491297100268638,25.662269345000734
2319101,-0.03212087333367828,0.04070534715003028,-0.03350555166751976,2.794205316713093,1.9548009377478626,25.824228024266695
2319123,-0.03626804000870491,0.018012224678769173,-0.030803566688385364,2.6055876867761962,2.613699170046174,26.66946705554015
2319145,-0.035833487718591,0.009098783882932414,-0.02627642811493413,1.1684731799489838,2.334707719183296,26.0441294955178
2319167,-0.031186160247380655,0.02025336315076155,-0.01771156087565415,-1.515644547998118,0.4918564899770515,22.686538224810555
2319189,-0.024820752633006062,0.056513454484026615,-0.006820396551119407,-4.795350926061452,-2.9954238955537464,17.227740400889036
2319211,-0.021311400377001858,0.11724161770241455,0.0007330556097072572,-7.256019361766139,-7.350114445940831,11.765712642862761
2319233,-0.021766722918592225,0.18533627728067656,0.000192807649474884,-7.009739062851375,-10.888543486659112,8.683549929777556
2319255,-0.021795838833715435,0.22940181772201018,-0.0072878065918279035,-3.0035262177955873,-11.894925504827247,9.334813205201815
2319277,-0.017877485436216648,0.2269729974407434,-0.014618655705043284,3.502080466368024,-10.011805045566204,12.894419740271625
2319299,-0.014054464255136297,0.18777296377795566,-0.01451092439270626,9.162114643608653,-6.704958789004658,16.369900817124442
2319321,-0.018614418809420094,0.148075807473053,-0.006281913283011234,11.025926534918256,-3.999961196111732,16.75243830737707
2319343,-0.03292328192701801,0.13833995443941677,0.002635452521685138,9.084737723522611,-2.6386221383286634,13.819946049666463
2319365,-0.04636858479588567,0.15856268123445733,0.0025244842719351623,6.128444757402834,-1.7019990024658824,10.293128905826737
2319387,-0.04585924072192894,0.18502610375877598,-0.010153038972967468,4.998922208081016,-0.09893114471906417,8.723135875855963
2319409,-0.02978656812538509,0.19525256518211043,-0.0293941884614759,6.162845485971865,1.971321418915933,8.770438698810834
2319431,-0.009526896599800208,0.18435010388248785,-0.044790129012755316,7.844792267867216,3.3084891117015,8.151153359884653
2319453,0.002442816671240227,0.16309913129389725,-0.04998870948809107,8.027740938894189,3.144089874879552,5.728750377010807
2319475,0.0026400775447562135,0.14589039931253014,-0.04593836741346323,6.121610712799086,1.9041685035399403,2.7481357358201928
2319497,-0.0045580342713511844,0.13983582215410698,-0.037114204479946275,3.073027059147741,0.690689682552922,1.108500086735871
2319519,-0.013482856748208987,0.14213760517259255,-0.02702899595322329,0.32498763485257864,0.33975286578423325,1.2575466950577683
2319541,-0.02063629676412475,0.14585566927562083,-0.01791253504116579,-1.2516984387419519,0.9438638617317627,2.0508980930150527
2319563,-0.0242835121620337,0.14659842016829253,-0.012191506624964573,-1.6592729685083363,1.9902453879087119,2.1373926471001683
2319585,-0.023753202084779986,0.14291055519974094,-0.011726257640003143,-1.3441478889048886,2.8117871057438,1.0766764144711098
2319607,-0.019928877637233396,0.13317405134230714,-0.01575108142789359,-0.7084604131760399,2.9950642905594873,-0.6331845435157448
2319629,-0.01523442166607636,0.11674895027691777,-0.021171983887299697,-0.035504294046642126,2.5499005832196686,-2.1369038367453617
2319651,-0.011584494270092258,0.09791968234680225,-0.02525139162525248,0.4088022865571828,1.8183955463208195,-2.7514968583206647
2319673,-0.008562798694951104,0.0841955488811767,-0.027069666240407277,0.468085715859462,1.172072875641744,-2.292045048724017
2319695,-0.005435096676398028,0.07955745714872005,-0.026407517670647845,0.20987847561918258,0.6882818932212398,-1.1987433606301414
2319717,-0.004787561818770448,0.08239345622095437,-0.022834173458464155,-0.20275090813488614,0.1697361306301361,-0.26348522119220086
2319739,-0.01100836684236838,0.09005490262761742,-0.016879296975470855,-0.6393851573838223,-0.42247175279033045,0.018530539596542016
2319761,-0.023706924042450193,0.10134476695268717,-0.011054622293648555,-0.8906530041640971,-0.6919087709407082,-0.16130978552560463
2319783,-0.03539663640508422,0.11345261558816291,-0.008338059441206762,-0.643566912010779,-0.21158317131168358,-0.3507030581435469
2319805,-0.03810726560578836,0.12043848223893573,-0.009752360316331848,0.1840048595896014,0.8097941061456989,-0.6340397088277137
2319827,-0.030968646080746565,0.11779745582701835,-0.014109131080323249,1.186039748965512,1.5278937245467963,-1.7136157114296418
2319849,-0.01988024170917403,0.10736641370979834,-0.01969030719436854,1.799125499742346,1.256605841026382,-3.956345893608233
2319871,-0.01141187424874706,0.09580609913187083,-0.025190219173562144,1.91400501310276,0.15819194996375616,-6.478739433251887
2319893,-0.008573941448571942,0.08842421277738427,-0.029221984685379343,1.9943480817099122,-0.9316594319922816,-7.547091523619573
2319915,-0.010878764431238728,0.08538271976144883,-0.030276156648548453,2.510636690867015,-1.3038640604150824,-6.130497335896018
2319937,-0.016095215516693302,0.08381975080856814,-0.028007134007389686,3.3182982792177373,-0.9731038989134433,-3.031630635839586
2319959,-0.02177692692119659,0.08245398870501869,-0.024066672870038237,3.6802665283343705,-0.5627686560859344,-0.3533098155969377
2319981,-0.02640280186305222,0.08261865689706985,-0.02078157949874051,2.9606517276381954,-0.6673084293808437,0.2662403032983419
2320003,-0.029950947175423723,0.08489756536458495,-0.01886785262656214,1.3176256539018312,-1.3039194069020197,-0.9609869761085116
