timestamp,ax,ay,az,gx,gy,gz
2233697,0.0023993180177203414,-0.016392681017639646,0.012008560990640467,-2.323921217318844,-0.36047825427074814,0.12974383044977242
2233719,0.0001407205649967546,-0.005126411502808346,0.0023259128163055256,-0.6474968250471644,-0.4009934257094251,0.03809656144808071
2233741,-0.0003365966387287167,0.0018763236098463297,-0.0033998430901535127,0.16617174017874042,-0.32825554273035773,0.12787677650723211
2233763,0.0005808460972047107,0.005240956566022947,-0.004472822623109915,0.00579900467313027,-0.16313897638549085,0.36952371567154974
2233785,0.0008559489280499204,0.008221964996640555,-0.003218162248902979,-0.4599784943923844,-0.01103399211995234,0.5614426478644305
2233807,-0.0005642980722194935,0.010910918979561014,-0.0019857075686734197,-0.4620367971861668,0.082937343839791,0.5271595628387993
2233829,-0.0022824291970337143,0.009626966427606194,-0.0011255874773986277,0.1613539287642024,0.1565034790335499,0.21979228772438653
2233851,-0.002251744357459544,0.0025022381045522522,0.00011397648143625843,0.8865529710720862,0.22605266735693078,-0.2845924881025631
2233873,-0.0006726183428142216,-0.006603308817067718,0.001580349027941751,1.0801276770021013,0.2608812708661549,-0.7657732659657774
2233895,0.0001402523186318304,-0.011402724575005947,0.001891471936725072,0.6204505281689385,0.29379220564694797,-0.8822998936155818
2233917,-0.0008926116421506787,-0.009615472423347054,0.00011341167200629763,-0.05713712506477226,0.4474914846186662,-0.4341923137197819
2233939,-0.0018138095360729018,-0.004716530947609339,-0.002745870595132576,-0.4802380299554792,0.7450037428180615,0.3126397610446862
2233961,-0.00035684019721997503,-0.0015161637774092347,-0.004325316912762801,-0.6113778974891344,0.9564828825113189,0.7348456258060052
2233983,0.0024506406694085135,-0.0012354745304242161,-0.00305214331078151,-0.7636681007866722,0.7849031982311752,0.44605456885202577
2234005,0.003012705111053419,-0.001173167948159379,0.00037894951819072943,-1.1098547996188348,0.2336025620479879,-0.26455699484798734
2234027,-0.0005610268978597749,0.0015255860607825576,0.003590478000692993,-1.3761830021855161,-0.31096749075267116,-0.6859135196046157
2234049,-0.006081732908922733,0.00606677506513874,0.004479611680391789,-1.088917654188144,-0.413749974970786,-0.35320572828835906
2234071,-0.009549883736301916,0.007777542296556876,0.0028529731092088867,-0.14539187373405715,0.031749200593674254,0.5741068674576824
2234093,-0.009271659117646788,0.002146897043407607,0.0006132203515852286,0.8809851778067268,0.7512329071974132,1.513760024101889
2234115,-0.007253162821648036,-0.009933515027094159,0.0003236750367503255,1.0929360171815634,1.331760304738241,1.9501164279609446
2234137,-0.006303188831905933,-0.020960427050188676,0.0029446450359604135,0.06265845118377243,1.5032067490457994,1.8185425906535106
2234159,-0.006094243305594206,-0.02222860336725474,0.006628916440840149,-1.6571304794016632,1.2682168096122446,1.5856769719305326
2234181,-0.003384360159517626,-0.011737443785684877,0.008193244091399415,-2.8875774704768484,0.8270662732588121,1.9502059596460009
2234203,0.00295230303022776,0.0032918143752485077,0.0062743455263962935,-2.806184630281883,0.39624849376844723,3.2615786048021724
2234225,0.008496792372060257,0.012206927027480748,0.0029697140524452504,-1.6184288170426562,0.11625918159448806,5.087102755893702
2234247,0.007333649462311406,0.00914914277012044,0.0021047387821110826,-0.268374050704394,0.09819193526516434,6.435229762746476
2234269,-0.00021854791918340374,-0.003905555990207623,0.005732154494000089,0.4250408318316821,0.4103560634776406,6.598579474877313
2234291,-0.006338449104566109,-0.01985983602460841,0.012080745333746952,0.2569720843012756,0.8850675383916179,5.847058276668735
2234313,-0.004163217528112165,-0.030090780966355746,0.01659904896520467,-0.5965268474903028,1.0270936012865841,5.186891780121529
2234335,0.0033580684751281227,-0.02752449989635389,0.015097704498501927,-1.9157977761697806,0.40847636228446854,5.351542535708706
2234357,0.005723878040223601,-0.01259153169210324,0.0067646451721259816,-3.277118441093768,-0.6619740293879116,6.120660926093282
2234379,-0.00277596919903914,-0.00024154782667992346,-0.004638673612498162,-3.838711652874759,-1.064234226197879,6.744642226959926
2234401,-0.014605195788456576,-0.01631399872042794,-0.012094194017560518,-3.0287640642156783,0.14132343280716814,6.890144752295874
2234423,-0.015488849825517539,-0.07610080974848764,-0.008967160235414516,-1.9286050514291992,2.5092595671051288,6.835136640526185
2234445,-0.00042381814940264153,-0.1604600500272001,0.006649728193893914,-3.548247535316414,4.198582301963048,6.656181970829451
2234467,0.017893467700593028,-0.21868212446540383,0.029897265509270063,-10.657089152187709,3.3854654190680447,5.568685241374307
2234489,0.018844587876075004,-0.20571573346589817,0.05138240044153236,-22.626788840001353,-0.20636113729605177,2.498283857844773
2234511,-0.005855340419302411,-0.12098792114763851,0.062086344628191036,-34.641367541997916,-5.004266262001316,-2.4488260856246526
2234533,-0.04119751282949352,-0.007993480449034324,0.057339275694939414,-40.68643098141434,-8.618067424292125,-7.004115475819991
2234555,-0.05997781406592343,0.08382489345904905,0.03835532783189907,-37.780263090455506,-9.364312505156137,-7.538400604004199
2234577,-0.04725059845777971,0.1316182677453661,0.012271194491402914,-27.775964265425078,-7.352558646322318,-1.8191354171794305
2234599,-0.014168090187518549,0.13767119414914183,-0.009924065247050985,-15.915568045557642,-4.4085711262171206,8.118152053930773
2234621,0.013352141238958636,0.11341824009250072,-0.01961821544386406,-8.04871747683439,-2.626421700893274,16.17905326032069
2234643,0.018930228450328906,0.07713704061547282,-0.017698937797577932,-8.085457503085435,-2.5253960227123766,16.58053197070025
2234665,0.007113244121313399,0.05639164514118616,-0.013862709062293465,-16.145498800067244,-2.658016832521053,8.700275051892865
2234687,-0.007727366046985129,0.07282217562682723,-0.0165121172013151,-28.369035343313573,-1.3828591896890723,-2.6942249042833417
2234709,-0.01863002339551441,0.12133227091901425,-0.024455569627855164,-39.25883004334866,1.0376659215264488,-12.01632347259302
2234731,-0.029142763128808702,0.17428567803427855,-0.030059968159774908,-45.01376719656951,2.56638727733586,-17.168497770950136
2234753,-0.04230690638166292,0.20764681396658277,-0.028596226676557143,-44.982345035281746,1.6690066117701234,-19.64817641158048
2234775,-0.05224233034239457,0.21646360831440634,-0.022139453554513553,-40.74064611887744,-1.0572975479649824,-21.59260028741333
2234797,-0.049036402176383886,0.20903676474398128,-0.015638366475630446,-34.84770143069226,-3.7991073491190015,-23.443765533408975
2234819,-0.030964893423912874,0.19939145557697868,-0.011787785635182676,-30.227193485601884,-5.645728729687382,-24.31410495685266
2234841,-0.0104924548302536,0.20552535376878656,-0.009689777127212624,-28.97599174882599,-7.301617804236358,-23.88475177090512
2234863,-0.005836730832074851,0.23921755400701947,-0.007132397224018606,-30.541072392973604,-9.782641008263855,-22.87071064493753
2234885,-0.02389614460170577,0.29012525967112135,-0.004046605708297182,-31.677079171260957,-12.848298844091492,-21.189015961285374
2234907,-0.05246579543123653,0.3295555140273065,-0.0033647017851910718,-29.307561639613766,-14.86062119255727,-16.940499575213693
2234929,-0.07190580014351398,0.3369766623597013,-0.0071275831307156205,-23.481287606900352,-14.006955335073501,-8.915103925942915
2234951,-0.07271208414948771,0.31808814273384195,-0.012584845641714457,-17.115430152294383,-9.739156095058167,0.13751369873451258
2234973,-0.05879007554648926,0.2950451112540088,-0.014995461252872757,-13.091789474387753,-3.4374546535468085,4.628176845380987
2234995,-0.037938393603969035,0.2860808570539621,-0.01411256577490565,-11.968688115560047,2.1589176062375772,1.5455472329391122
2235017,-0.01727766061421174,0.2966347309258392,-0.014558293836182637,-12.080383949423215,4.589120309941652,-5.87084166501073
2235039,-0.006912970252318113,0.32094273728267975,-0.019135828785459334,-11.217339194758129,3.444673076145619,-10.752913322164433
2235061,-0.016600497757873266,0.34474945873348767,-0.024847087947479446,-8.385833834312015,0.9006378605999835,-9.072126013642032
2235083,-0.04225944278326049,0.3508834370762444,-0.02688688857467085,-4.5344598760577055,0.1699248691375663,-3.262852467840083
2235105,-0.06257583753510822,0.3309602744935394,-0.02442333171716805,-1.681727507459416,2.75326590293944,0.5950938364236454
2235127,-0.05739760338902692,0.29453388615532766,-0.02090343146350638,-1.154592812624062,6.943078123827942,-1.31724018711693
2235149,-0.02857282405551975,0.26494743487564215,-0.01979786095482997,-2.711093604282734,9.299794255475428,-7.810977247758451
2235171,0.0011868213608910569,0.2644907535489146,-0.021329766188218722,-5.252790643733454,7.836906031030198,-14.960817787285466
2235193,0.008478344129227374,0.30102529499398534,-0.02305753966107198,-7.7593561715664645,3.795635225880329,-19.627069927437297
2235215,-0.013035159716102597,0.36290300981078316,-0.02297579683577089,-9.102762135234473,0.4675772861480779,-20.646259257596668
2235237,-0.04917349344226193,0.4211512597657345,-0.022194053860915042,-7.589377053498348,0.5003073614521101,-18.176152263756173
2235259,-0.07389706812921287,0.4412818971160459,-0.024941987574636344,-2.0470274413410987,4.10351634296661,-13.150783854671424
2235281,-0.06558380919210657,0.4074886829374689,-0.035436416044966265,6.00781233620779,9.15786209466172,-7.194068545229496
2235303,-0.023784629078297134,0.34166225167988995,-0.05319355031630884,12.233624057958274,12.6488005094147,-2.443055722025677
2235325,0.027142324304674545,0.2894379508707946,-0.07027140131292324,12.850346763020243,12.472035557133777,-0.9040861885016905
2235347,0.05468321097113452,0.2804972896861711,-0.07458379186189823,8.309583070103757,8.765367122630119,-3.1051822475734583
2235369,0.042864173341697114,0.30659648383713833,-0.05946314149345533,2.9467404097081746,3.885051246514601,-6.938935254566441
2235391,0.0037120091344881754,0.3381282317638723,-0.031554481410994276,0.9457926271675572,0.7181652237942611,-8.652891056598275
2235413,-0.03380055820266682,0.352784308314693,-0.007263224538527242,2.9528817787027686,0.4912136963111875,-5.933853489335442
2235435,-0.047225900465407804,0.3471262150150775,0.0007008411947737512,6.30046959208019,2.0498036365796786,0.0313888167784426
2235457,-0.036291919466536864,0.3311547466158918,-0.0068877466667427775,7.925853003488626,3.3098187350810817,5.779099910085585
2235479,-0.017635316541571768,0.31658563814183477,-0.01900691712116553,7.051054999974352,3.3015730823025837,8.531606006470506
2235501,-0.006233536538411637,0.30585911711857566,-0.025072599007065207,5.332050351460665,2.6497158657187105,7.937252749300569
2235523,-0.004339135811742302,0.292109012803507,-0.021888771445020914,4.6303372996941095,2.3118359299884967,5.624460065611493
2235545,-0.006524389989261184,0.27263832244107616,-0.013317491568938118,5.036367554330902,2.4423432876350155,3.6546159957238107
2235567,-0.008745142701007156,0.25743602861854503,-0.00613399031222635,5.369244836281137,2.6891736785582463,3.230252900205209
2235589,-0.009570362440795767,0.25777824457941884,-0.005307177250556306,5.092099272529714,3.061192548423485,4.29861491381957
2235611,-0.007340770965113664,0.27018065094287774,-0.01078441057059962,4.830878143445111,3.8886175905407336,5.93050490898893
2235633,-0.0009584273339295115,0.27932566553348925,-0.018134042101589105,4.950594417090686,4.982302175034297,6.984738335368557
2235655,0.007617194738122019,0.2754422692308725,-0.02271586802668335,4.483645135773374,5.363043848057763,6.6722048359558075
2235677,0.014830367969068796,0.2617566674600739,-0.023118271439541593,2.0956695290147858,4.13794304056946,4.861778009940129
2235699,0.019698839884042085,0.24529260683856058,-0.020959771620220124,-2.120501954791109,1.5440329935953372,2.0829164527952826
