timestamp,ax,ay,az,gx,gy,gz
2296925,-0.010535267464116874,-0.006432304412381305,0.008280737559790136,-0.04649886826047363,-0.49931824921589835,-0.8271930144725608
2296947,-0.0018292408873867745,-0.006097758002741455,0.0010174461168965432,0.3986714270451702,0.009234708039655051,-0.4352849105017742
2296969,0.003820635137049398,-0.007926921454063728,-0.0032921077527079557,0.6843214315316084,0.3425467969171872,0.11808610298255702
2296991,0.005250682160859311,-0.009918091492724608,-0.003642405296524052,0.6241720259788933,0.4259702959269522,0.768024746093885
2297013,0.003731756571049808,-0.007421962784114981,-0.0015909043514733007,0.14815836385247555,0.30862020106072924,1.2033536796575128
2297035,0.0016920920329205366,0.0011992852714539468,0.0001491237189697009,-0.5090694254910149,0.1077819078050029,1.1154454361673236
2297057,0.0007254410814116584,0.011094316762485425,0.00011238920838221973,-0.8744043089119586,-0.0692497491054902,0.4953630801718507
2297079,0.0005987495449948235,0.014014957717671002,-0.0007846977333076013,-0.6276476554614673,-0.17424389642334692,-0.3485209344762392
2297101,-6.0835040321345e-05,0.005767921225328762,-0.0005372332376467583,0.035237371150615315,-0.2185809121190684,-1.0516303987285256
2297123,-0.0021881967494525377,-0.009170236442860063,0.0015603582301404384,0.5096946414667376,-0.22812611329259838,-1.3994054610982802
2297145,-0.0050510175289758905,-0.02119155165611042,0.0039682928960290825,0.33256459763947155,-0.19329134944086376,-1.3230938951449973
2297167,-0.006374040751642159,-0.024353050009997178,0.004523885703400158,-0.3981114965693183,-0.0835955657878681,-0.8662600541625896
2297189,-0.004332853540158185,-0.021052261503390617,0.002983650333074474,-1.2142667362233364,0.06823341048152602,-0.21001185320536225
2297211,-0.0002817946788658171,-0.016959855362302448,0.001621004521444987,-1.8404730389401764,0.12942933111936186,0.39958977374252314
2297233,0.0010066833316511683,-0.012156589916691307,0.0029652721298384214,-2.4006959853921477,-0.006953707351771244,0.826444128284827
2297255,-0.004388229743225737,-0.000124721536330342,0.006872314270250642,-2.9736305877561566,-0.21855373309088444,1.0776587129363018
2297277,-0.014155871987785304,0.02255361576097128,0.009955531958318537,-3.095038246352965,-0.14512922735861028,1.1429951024624523
2297299,-0.019946844799361856,0.04697055758411416,0.008149306390167458,-2.0177400559311427,0.47441701352393995,0.895033264173095
2297321,-0.014727858863061114,0.056026685355750463,0.00019162510272570434,0.3324282897021862,1.381017345669364,0.18252613646165386
2297343,-0.00013354849687941092,0.03985639497668075,-0.01098053834786965,2.771136640420096,1.8056402663162678,-1.0210449221257916
2297365,0.014313665383317065,0.005747574835260273,-0.019964398145444828,3.5469806603039697,1.0856699063159139,-2.506486621390134
2297387,0.019410212328405587,-0.02920025224896884,-0.022314686675271103,1.8500156326801607,-0.6434033163446354,-3.7502127944912007
2297409,0.013549478820784527,-0.05430854300678319,-0.01727882597587686,-1.3874667832666423,-2.446829990591636,-4.024215891800202
2297431,0.002819964127154362,-0.0722836504052237,-0.007940297283130228,-4.318535056918557,-3.3748737036710468,-2.839366642054821
2297453,-0.00481649006225387,-0.09107397063216546,0.0015048323389221028,-5.84086899600933,-3.24798326319677,-0.37389496785487863
2297475,-0.005775382412775983,-0.11228243158381959,0.009081684347147899,-6.411006990195564,-2.642946560499089,2.720836800274337
2297497,-0.0030650248405037018,-0.129745390470317,0.015957179177094386,-7.3079632525520966,-2.164860860174345,6.087227337793878
2297519,-0.0032433020664383856,-0.13815354192487683,0.02453968132170573,-9.369747055842412,-1.8210677379253288,10.020311942913617
2297541,-0.010280998545012885,-0.13874603101755928,0.035779311264725874,-12.753410366938567,-1.131443139852266,14.548729647859034
2297563,-0.02101215063037476,-0.1327840499183072,0.04718752413576595,-17.841542269938476,0.1700816363441789,17.885152995426917
2297585,-0.02661146934390179,-0.11152700623228598,0.0525050734515098,-25.59501067145444,1.5833535326607833,16.42269862295183
2297607,-0.020154082487588418,-0.06087239752680614,0.04463351496728838,-36.05755641805335,2.0971686780727627,7.664405960865796
2297629,-0.003973036945001059,0.01803621370580054,0.0216311263076208,-46.513230384799115,1.1578501288897023,-6.004217459798536
2297651,0.011222775203594415,0.09672063602780585,-0.009103723818505959,-52.29495907630587,-0.5885001325615395,-17.237395523413035
2297673,0.015995958446798617,0.1379384324849547,-0.034094757556829954,-50.54025948695896,-1.7330427069544454,-19.09157815148292
2297695,0.010833393208438262,0.13149962436699095,-0.043361145990831164,-43.15892029149867,-1.516867899337983,-11.381890818872533
2297717,0.004227317980783741,0.1078217750988733,-0.037941859495724393,-35.377388673572014,-0.7714537988358303,-1.29290961129291
2297739,0.0026384436046394647,0.110395229422084,-0.028320169109212916,-30.90669908960499,-1.2112529987796667,3.1337465791873624
2297761,0.0038025224094452785,0.15427678827325483,-0.02534144609867453,-28.62901282554136,-3.6812136339732673,0.3643279613029897
2297783,-0.00012152487126053305,0.21381335026015402,-0.0317614445660144,-24.24896081086111,-7.2195887568457415,-3.9048649139689604
2297805,-0.014435046034206965,0.2508289770220948,-0.04114895140446578,-15.164125048603758,-9.925493047665096,-3.1667940430727293
2297827,-0.03741145809818903,0.2518312829634434,-0.044211881669256055,-3.394952905537316,-10.60543683245919,3.4593257643966027
2297849,-0.06202778262287279,0.2356440133528864,-0.03678571368955881,6.461503276802031,-9.429701387653969,11.478045542906694
2297871,-0.0801392921443499,0.2278477322120166,-0.022845265570289763,11.731543943191001,-7.160468016773391,16.64876587198238
2297893,-0.08547914512802672,0.23443052291054403,-0.010485450256548097,13.560094189988536,-4.159738530695326,18.824689916927593
2297915,-0.07568377088046838,0.2411329990262999,-0.005030042777796096,14.731046218126446,-0.35505018573082453,20.217074098409906
2297937,-0.05410380661289963,0.23025258225024547,-0.005533241706851314,16.678744188392105,4.0735075037061375,21.75136635415205
2297959,-0.02920773471867726,0.19300151733116727,-0.007107802421736743,18.770037282175995,8.33608055690278,22.489021816454947
2297981,-0.009966634008257643,0.13279318055460695,-0.006024549449987575,19.381219161034927,11.40856087183548,21.727754328215767
2298003,-0.0007432127524291743,0.06631849792296646,-0.002778753056866903,16.94380938888414,12.663220021757034,20.05721230104756
2298025,-0.0003195487584642731,0.02018281253304021,-0.0010312438841565319,10.665492412669304,12.2709988004142,18.31091729201314
2298047,-0.004530863574863163,0.01732455040779926,-0.004146553370065896,1.3653666499319987,11.20746054275825,16.594798279681648
2298069,-0.00890579578050017,0.060962965859553894,-0.012588334212273209,-8.20785007886625,10.72951056351173,14.649943308107556
2298091,-0.01002127878829387,0.13050323108815023,-0.02367194133111535,-14.498982276483556,11.466766580526127,12.453397988123118
2298113,-0.006469194043150945,0.19247380238504228,-0.03270659373797809,-15.220032808613281,12.859713445023107,10.187392078427923
2298135,0.0003399982554485905,0.21942096697947108,-0.03485355048680259,-10.796610668822165,13.57794091919444,8.162645200730084
2298157,0.006650599766391675,0.20777450050437218,-0.02820888176703983,-4.074185452129461,12.607073058581037,7.0014615790471275
2298179,0.009186827327373569,0.18147772723017547,-0.016507110648207476,1.6078919051585585,10.06298334382802,7.374972600676829
2298201,0.00881679008531672,0.17164626651624393,-0.00755785406632021,4.663764766323768,7.086920691611898,9.167859006739562
2298223,0.01040016744168162,0.18677071277840054,-0.007127042217662532,5.97960773901166,4.912350990007493,11.149173456559469
2298245,0.01693241039568112,0.20536222311577784,-0.014017392172777086,7.393601447467861,3.8804593858227094,11.800473998708004
2298267,0.024691439680202362,0.2005566661247538,-0.02172165531564244,9.493429471404724,3.359715951969951,10.446078267296766
2298289,0.027400278666590554,0.168189690635371,-0.024874914931404587,11.05070227166084,2.668717083273663,7.545503362465061
2298311,0.02514000081194511,0.12805052558508462,-0.023506596368551097,10.4774704171715,1.8775644942324101,4.176859198630448
2298333,0.024856511069900594,0.10292484670561888,-0.021002009336573323,7.456724699952294,1.4874396554769986,1.4578403511733997
2298355,0.030109271902822962,0.10181963689359799,-0.019120921202743293,3.126740894114489,1.5371544776346173,0.16000074879545542
2298377,0.034398689260362984,0.11925183409105183,-0.016355405318603352,-0.861706603643508,1.4723583833780762,0.3404819204532342
2298399,0.02908202174219433,0.1420659763965622,-0.011091328358932654,-3.2140155877718106,0.9481705229829924,1.195682705799108
2298421,0.016159114413257285,0.15584317881833526,-0.005012310011302967,-3.3673547615442407,0.35571459866114824,1.569892529667571
2298443,0.008005711401251574,0.15155373237796954,-0.002276350341327984,-1.6455072242914153,0.29834304365413916,0.881171064379737
2298465,0.013474217775215376,0.1313138661646459,-0.00533122418281806,0.8116298805361556,0.7709158209475724,-0.45645858486549795
2298487,0.02808183923527984,0.10719577410965891,-0.01216297532629248,2.614323772620707,1.150719121434652,-1.5968241649442925
2298509,0.0396950312646379,0.09176569639933886,-0.0179882209793161,2.9844770775611464,0.93217637366782,-2.1492945357278956
2298531,0.041088339448078985,0.08835956398065277,-0.019317424131084074,2.1907467735352877,0.2401837839693149,-2.363217264546303
2298553,0.03471778305675497,0.09053872680308699,-0.016159261110300128,1.124536032093147,-0.39873308073490565,-2.5284690043470417
2298575,0.027043420694428923,0.09116961529649849,-0.011081436673542971,0.4479464135280884,-0.6336775648264332,-2.5218956421246475
2298597,0.021321009667509692,0.09090659602407211,-0.007204615611306682,0.18956340423909362,-0.5546213997055565,-2.124555166614315
2298619,0.0169036828672234,0.09564664120742981,-0.006813996152240782,0.11745477493822298,-0.4539328576656966,-1.5818048176677109
2298641,0.013807342751154604,0.10585288014920333,-0.01034351148315339,0.26472376015692545,-0.4796494957953066,-1.5199012669228706
2298663,0.014555973558100142,0.11260176337090613,-0.015712201417330127,0.8370569150215107,-0.6279134030918407,-2.2206091351387744
2298685,0.019603060308875337,0.10759702188401336,-0.01923266943897425,1.6788234491007574,-0.9672603910363636,-3.154867406966461
2298707,0.023617916095400274,0.09448637251788167,-0.01826890134315538,2.2035193994814644,-1.6032700773454789,-3.4385200267001608
2298729,0.020734201654220626,0.08527867930543553,-0.013299084429765825,2.0370939853975485,-2.340087946624332,-2.771214715760669
2298751,0.013010323382858338,0.0859314950758747,-0.007153806210486476,1.499449037544865,-2.6285366990851595,-1.7638208150354564
2298773,0.00905927177756723,0.09026342835308224,-0.0024987091512395287,1.2207406887785388,-2.086865473222695,-1.2413355999216544
2298795,0.013158792272211235,0.08931367487346348,-0.0004774687340742544,1.4141238434521723,-0.9812904861013232,-1.3686773884374435
2298817,0.01955573404821639,0.08259906750610592,-0.001250576899067768,1.7373047159673312,0.005065360929712756,-1.6260830040753476
2298839,0.019870311130754555,0.07715949920250398,-0.004626358491406197,1.7797488386030111,0.43387761795921254,-1.519918952627157
2298861,0.013986507409669707,0.07763629683765114,-0.009754018932934906,1.4459024933570563,0.38484160957576324,-1.0676091908569396
2298883,0.01102946112630968,0.08097311591628219,-0.014966521458041102,0.8515775051964971,0.13976223217346462,-0.6000264474517994
2298905,0.019709035335781215,0.08121528799350315,-0.018768495355973983,0.08440765629207145,-0.1616024192040977,-0.3359319456324771
2298927,0.03893778113283568,0.07698024862408254,-0.021115484828401723,-0.7978397174020592,-0.5008179009660213,-0.24247816991000662
