timestamp,ax,ay,az,gx,gy,gz
2303943,-0.0035783194045078113,-0.008855724759171497,0.00172713473057067,0.30497415330312216,0.41410572960407743,1.3700942250508468
2303965,-0.000971039879750036,-0.001068983289397229,-0.002238115372049389,0.42248763013924684,0.8326404763889319,0.8611823382299925
2303987,0.002540344813348542,-0.0008179509087190114,-0.0055454683482558465,0.5652419392868271,0.9909981461757349,0.4106344974777874
2304009,0.005566585444238434,-0.007886631105002942,-0.006965481581349922,0.6107879114626884,0.7482135341632093,0.11767210841013258
2304031,0.005411605418085513,-0.014462590809252664,-0.005213388998090223,0.36709089467995587,0.16093821876143988,0.01397819479589029
2304053,0.0013483500485973428,-0.012686100875091028,-0.00039392455479895046,-0.18239800610243703,-0.5156653573212179,-0.03166390354309866
2304075,-0.003832587568085045,-0.001882772881897944,0.005077623332265912,-0.7486336438869706,-0.9422110582346096,-0.1883541648915686
2304097,-0.006006201232944037,0.011036942761711993,0.007531761617466769,-0.8989229870344427,-0.912979880708203,-0.46018183784871597
2304119,-0.003317217470807828,0.01742379281603716,0.00475139294583067,-0.40454280554832234,-0.5454589094663104,-0.7211743696902524
2304141,0.0023453963482001007,0.013177460248481578,-0.0019409061880063352,0.5195122650924769,-0.24944010587314042,-0.9363112315066174
2304163,0.006990174300304128,0.000717107993639081,-0.008406523218478798,1.3158725403641625,-0.42842333254698034,-1.184735563496309
2304185,0.007509351989451438,-0.013527316855819795,-0.010874524370840756,1.4748717877501387,-1.1332472283560866,-1.4241420754319556
2304207,0.003738407697623786,-0.023197762133913908,-0.008637559308167512,0.8855153816499244,-1.9918722770497825,-1.4217465157844411
2304229,-0.00166395855546471,-0.024906438740075056,-0.0037786993158767067,-0.1353193421283619,-2.5108093669661433,-1.046820962706143
2304251,-0.005456371946999923,-0.01907167395156242,0.0013438239662018276,-1.0897585115514354,-2.472379293524973,-0.4849469753310961
2304273,-0.0065208293359801175,-0.009344839081639052,0.005937390625106293,-1.5801318565003222,-2.038822810776853,0.007902513495225784
2304295,-0.0064457507963511735,-0.0011661672701552119,0.010164914965553688,-1.4982015794141166,-1.4930850478244586,0.4527510256117734
2304317,-0.007182326559120202,0.0006519285439557359,0.013216664171821008,-1.112931670398202,-0.9578606960245852,1.0174414575423423
2304339,-0.008354957252168475,-0.0056393592515029504,0.012755951676024982,-0.9688121004701674,-0.4199876104709084,1.5724862273038007
2304361,-0.007449822852449767,-0.018736314152562515,0.006929542795407626,-1.5224802138930198,0.04927636153000531,1.710629921975311
2304383,-0.0027829687435380526,-0.03761281085063341,-0.002962250771546384,-2.754219955557789,0.25394482183670636,1.4721658602653256
2304405,0.004161703560141999,-0.06474690548793278,-0.01218278928596812,-4.21329742464588,0.10936432276329437,1.8975500680411403
2304427,0.009826855406220346,-0.10385192891302586,-0.015547700366452262,-5.653952717511308,-0.1934919269539729,4.314855842705999
2304449,0.011973846721574435,-0.15111738273602304,-0.011505972666308439,-7.7604070863109795,-0.4172132376919813,8.556755903395258
2304471,0.011330213691967414,-0.18792550287879084,-0.0038795626625936254,-12.06399339015646,-0.6914483461960523,11.951452742883633
2304493,0.00938411642222902,-0.1873374753095448,0.0008148508931195678,-19.596479475985646,-1.5358019284550495,10.940161419714219
2304515,0.0053387646279912234,-0.13591133219679147,-0.0010067482450906457,-29.149523985709795,-3.2829065567608087,4.691706976264781
2304537,-0.0031324632921439274,-0.051793692356599516,-0.00629644404442056,-37.09411480679127,-5.4708427826169705,-2.813286194675023
2304559,-0.01570846628551361,0.02437689652091136,-0.007716176640150523,-39.76172377084947,-6.992537433625544,-5.26316266357526
2304581,-0.027513554376004192,0.0624983920456878,-0.00037629698310096037,-36.55383283518154,-7.010791127103009,0.5396111436434823
2304603,-0.032989635009101355,0.06737249201550718,0.013601613525360334,-30.484065379670596,-5.711832138082423,11.710791000426033
2304625,-0.031727889696334034,0.06975610081339689,0.027004319910202697,-25.280185024309556,-4.053498323793958,22.016959324029
2304647,-0.029377759432150475,0.09596359442885134,0.033202243911904,-21.989919851324732,-2.7321269804226413,27.355381049980984
2304669,-0.03184892839618438,0.14679143169841455,0.029841862084561053,-18.465728534859277,-1.441188682876942,28.42603440077321
2304691,-0.03860210117255077,0.20056553518329592,0.018551310339568618,-11.777189600201346,0.7704208476458541,28.716110441234456
2304713,-0.04248313229481002,0.23099651898237117,0.0029849681363700803,-0.9034125339050978,4.332602365077262,30.611240837393808
2304735,-0.036843369222807766,0.22330407435680188,-0.012423750925009988,12.333817021077481,8.365455076704832,33.234628404389824
2304757,-0.02253044712276418,0.1799753554776362,-0.023109395154894338,24.193210077672124,11.20165186170809,33.480207749006375
2304779,-0.0073089614911221925,0.117587905958974,-0.02579035787856034,31.03708294947449,11.82509083607614,29.316345867670805
2304801,0.0014516844330948178,0.059536561734550755,-0.020645440726872133,31.518412266354318,10.784391450305476,22.476665103428797
2304823,0.0033842707341610323,0.025717837366673338,-0.011835950036603104,27.56923682877351,9.663258331676499,17.43418713939274
2304845,0.005226248094915935,0.019630316287749833,-0.004400066648986482,23.07390671586131,9.686091998093277,17.023537366363772
2304867,0.014507542542549321,0.023283178919050542,2.7870290655465885e-05,20.857663515259468,10.73333153758439,19.424275446840067
2304889,0.03155414074305717,0.01297790486968102,0.0036922963727042445,20.478917587959575,11.470959538330597,20.195147332402076
2304911,0.04701820024583453,-0.01393372909405868,0.008694477744057566,19.014647057836193,10.455358042248728,16.98913080526389
2304933,0.04959553464181762,-0.03267488609330071,0.013450202183008358,14.252844186834455,7.465494628452401,11.585583906298123
2304955,0.03799457458749432,-0.016547317347469084,0.013868307659182608,7.132389911652477,3.9270503072752683,7.666551854828596
2304977,0.02302082013979457,0.03436494298073291,0.00793817340804163,0.9786509862089591,1.7910045587457835,7.42453568021491
2304999,0.01553665158326482,0.09334732321948655,-0.0012358778713599241,-1.5169915890940815,1.813684782194034,10.073082674679878
2305021,0.015300295975279246,0.1319173760578816,-0.007548869939559334,-0.4408616100703541,3.0765184236666325,12.717713232326279
2305043,0.01544001774705774,0.1409079105947345,-0.007595754029849729,1.9436890774409832,4.201231090041964,12.622639781235117
2305065,0.014957988413242975,0.13084107762864072,-0.004004771670731622,3.526046680183146,4.6719643438300995,9.394215431316923
2305087,0.020689366333119626,0.1174217888986316,-0.0023747852228142435,3.944534953308197,4.793629301274694,5.244765541124089
2305109,0.036794093509847595,0.1079121833777862,-0.00498992134144745,4.0955335445672025,4.76877937354623,2.856567449190917
2305131,0.05714683764664308,0.09966064310720199,-0.008246205577730986,4.529534223290714,4.313456527819605,2.9862444227680354
2305153,0.07008207272952552,0.08902216943839399,-0.006413593461452047,4.75700387780976,3.186212692539128,4.264860084746192
2305175,0.069094235894658,0.0778350514870845,0.002262056535151477,4.126955610469649,1.762810665952528,4.9446428663251245
2305197,0.05853664839718285,0.06895283077087302,0.013029001733413833,2.9169082275112572,0.8559298294123406,4.394274445733543
2305219,0.04980475431329636,0.05889311548137602,0.018260498899316805,2.108353170738697,0.9358906591191476,3.1354249085360277
2305241,0.05118674056199776,0.041257087156014026,0.014300357144054672,2.1146557606857885,1.5854483404997914,2.000046585221512
2305263,0.059989704877441076,0.01827188598377911,0.004907766369658842,2.155690370549161,1.829782341572901,1.3935187300187795
2305285,0.06531687464264684,0.002714544562767341,-0.0025650961919991295,1.1943092177982744,1.1081499009283664,1.1406993779048094
2305307,0.05985891434299032,0.00406569646682569,-0.004204662788555335,-0.7098619116799869,-0.11640008455023354,0.8976215597169441
2305329,0.04778418513365772,0.01635813972616788,-0.0020231164317626896,-2.393746996767539,-0.844445040916252,0.6662401839234804
2305351,0.03937217376044688,0.024885773235895612,-5.124846773048525e-05,-2.937318734965358,-0.6269374323178369,0.8082138721184624
2305373,0.039335046569599574,0.023503306293616646,0.00023887956834082693,-2.606243971548023,-0.003950332215402898,1.5179608187026015
2305395,0.04305849424774267,0.020166739217938417,0.00010586469903276679,-2.27802916235779,0.17138639861338845,2.4076044313427163
2305417,0.04362783897315933,0.02487909994437771,0.0006826379183526116,-2.2748861112274232,-0.3477756626323339,2.738482835212411
2305439,0.03943786785672876,0.036669136555620305,0.0014273898637953324,-2.1186299060938847,-1.0749274006666023,2.065698447030896
2305461,0.03430298770569709,0.04482789976200859,0.0012674170268221231,-1.3162497522813674,-1.415007465954404,0.6324148862372825
2305483,0.032539072628172634,0.040598429104648455,0.000226001798823068,-0.04390461578030994,-1.222777300869767,-0.8246424323093006
2305505,0.03526749794805896,0.025470742388624318,-0.0006858140011273569,1.0045408620644913,-0.8103602201838198,-1.6097928063812093
2305527,0.04034667629444179,0.009091510460716526,-0.0009042831189348028,1.2626230374896423,-0.5912513740003532,-1.4669430205163516
2305549,0.04473011343452435,0.0008289359377043504,-0.0010157848090535018,0.7289268739309859,-0.7505545076552579,-0.6248936167160963
2305571,0.046829324247098326,0.003423952161760683,-0.0018467716250624147,-0.11079676354547974,-1.1711231477740478,0.39017744587514286
2305593,0.04675668362145415,0.013196451665287776,-0.003219627001425231,-0.6869884791445822,-1.6136801159394196,1.0263527425992378
2305615,0.04488434690781087,0.023917319701485112,-0.0039533540396639345,-0.6893633963427662,-1.9389542890833895,1.0070737210884715
2305637,0.04125695075055152,0.0295650139163803,-0.003038050201237528,-0.160609787033696,-2.1557881224607156,0.5144136027603499
2305659,0.03632226782406429,0.02610889591671274,-0.0006332089895774067,0.5634434744134974,-2.3131363380099637,0.056417996147223835
2305681,0.03106710762642622,0.014355764956996144,0.0020033775451723415,0.9973367173076094,-2.3985464192644224,0.08234175762330943
2305703,0.026483673232440247,0.0011160961492652569,0.003401194162153798,0.7971302774703607,-2.3270769396327946,0.6751854807749139
2305725,0.023703672960192497,-0.005191262205657876,0.0028511913118524352,0.06087844234138763,-2.030265230840997,1.5444056343742847
2305747,0.023828066149425918,-0.0012385611891727948,0.0008601371786617887,-0.7231602003739479,-1.6027978946945087,2.2515137265054728
2305769,0.026400292061122484,0.009472276240243566,-0.0011854536814911265,-1.1060914471077619,-1.323021266781904,2.4960834641646086
2305791,0.028912631336647836,0.020906037927855226,-0.0018026934550734763,-1.017484678749967,-1.4084412010792093,2.3154650801280785
2305813,0.029125579950159772,0.029317065244126483,-6.239422842872354e-05,-0.6890512942916192,-1.741058104134822,2.035106013294093
2305835,0.027326523658809308,0.034518426822640516,0.003928760567033973,-0.3633035972567291,-1.9401127235937896,1.9381191971963905
2305857,0.025593395947369757,0.03776915260727086,0.008655970221051523,-0.10018716147115778,-1.728296112114246,1.963684227646569
2305879,0.025767803024468544,0.03829350424569445,0.011602644693807474,0.25624139292605697,-1.152296747965975,1.7946903038309463
2305901,0.028859180137310425,0.031811154512684056,0.010759767409405466,0.979931013698697,-0.4507690777868919,1.2225108984456194
2305923,0.03520795544674426,0.01417421441076722,0.005973083409347717,2.242536116856071,0.19573793598636763,0.322644587709149
2305945,0.04391532845575126,-0.012528583478302215,-0.0011726120805035873,3.9096583089111685,0.7644837696674206,-0.7115190232533419
