timestamp,ax,ay,az,gx,gy,gz
2247733,0.011767356276678367,0.011476434354118032,-0.002317365658975292,0.6768072769978403,0.7404509337031726,1.4237108792616573
2247755,0.0007526051454544983,0.008228950587634778,-0.0048341708989001935,0.7681499171972906,0.2164967928377274,-0.762912783453823
2247777,-0.0059143318749664935,0.002885873612763049,-0.005081389764792099,0.8215686764201963,0.015459452024053966,-1.8531298453658505
2247799,-0.006548788228433753,-0.00390292722288525,-0.0028493590512191705,0.7294401467852968,0.16240770989521372,-1.5383440044392362
2247821,-0.0028030726908822414,-0.008833396331475434,6.608468302037274e-06,0.3858000382619415,0.37812856921870974,-0.42316141748134567
2247843,0.0018759116708804665,-0.00907117580089185,0.0015872316089942536,-0.15647920841992682,0.3570230584349927,0.5721942017696144
2247865,0.004552125092108541,-0.005251580835317747,0.0018225743962543295,-0.6618413649058305,0.0419678990700538,0.9380812930232298
2247887,0.004157226799846268,-0.0008390576155939424,0.002163115513808715,-0.9107708278673122,-0.3581816669625987,0.8016878627361955
2247909,0.0012166191786982387,0.001571753456057516,0.0036077143253475234,-0.9050595372440875,-0.5796485507689374,0.6029059924243909
2247931,-0.0031749973678059087,0.0026237292274401804,0.005430743246052485,-0.8199343389810617,-0.5114976860133355,0.640503266299236
2247953,-0.007685139797115657,0.004437587321873132,0.005932140272854816,-0.7610022234690909,-0.22289108021409115,0.8733681824017101
2247975,-0.010439333189368436,0.007131304180921376,0.004202213497375653,-0.631917368099025,0.15777359121936285,1.0594255404770685
2247997,-0.009667997417191074,0.008216967319582262,0.0010028229280905536,-0.27137446399668597,0.5392896192356879,1.0434116559186268
2248019,-0.00547386412951023,0.005754758493876921,-0.002039926188148257,0.31529829306463353,0.8496075853515755,0.9045587821792973
2248041,-0.0002986595638967774,0.0012604700150322776,-0.004061610370049733,0.9148181515647245,0.9995398862978577,0.8348763626394854
2248063,0.0033663289591406888,-0.001406384275852661,-0.00573909090268612,1.3109476651557983,0.9331694677291541,0.9169448518786587
2248085,0.005520414982130917,-9.217921775102065e-05,-0.008288321413835079,1.4906680288299223,0.6971998775472058,1.068693603220332
2248107,0.00797183835645666,0.003159854474805287,-0.011582383841751882,1.59142606679512,0.40079268083239095,1.1856999339851098
2248129,0.011100912468571115,0.004013800003403108,-0.013561611854524142,1.6545377355243014,0.09699167316921822,1.257599159498229
2248151,0.012455857821541053,0.000280533307318234,-0.012036754535318137,1.5289000281944278,-0.24759887918681064,1.3195564193794869
2248173,0.009450437847510488,-0.0058630142766080695,-0.007225631214758022,1.0922965500402289,-0.6445179237492195,1.3597259579444338
2248195,0.0030039638263759097,-0.010397999773084844,-0.002093871841612663,0.5047982623541818,-1.0076303742689527,1.3280585099636946
2248217,-0.002539246297462554,-0.011922506245705214,0.00028490096955076046,0.11745829083872661,-1.2445414599259144,1.21592309142934
2248239,-0.0033961842172338004,-0.013048785553407938,-0.00030147243585002675,0.10439004095256527,-1.3641699866015822,1.1231661735322553
2248261,0.00025383576908689893,-0.017509239375076226,-0.0012476017369255198,0.26124775485310087,-1.3961476018020282,1.2768118004674325
2248283,0.005088005219352885,-0.026651134772753177,-0.00030306879005680555,0.21139628024762044,-1.2593358665349543,1.92967575511215
2248305,0.00827708326885718,-0.03897966021180247,0.0016161732493667773,-0.22422215624186645,-0.8824609379418434,3.11420040432998
2248327,0.00952426781177281,-0.05226404978197112,0.0012553085787263272,-0.8965995189367694,-0.46844992767994464,4.505755136434447
2248349,0.009653222934921374,-0.0654610489304997,-0.0029942106044191542,-1.540742629358133,-0.41110307199879637,5.7222489244013675
2248371,0.008546744432350269,-0.07957447165419562,-0.007814302709429871,-2.084538977656597,-0.7910603470429698,6.8576726385788955
2248393,0.005581164570198874,-0.09782871670869904,-0.00613493250141262,-2.803820159338991,-1.1223686458492683,8.529381995721279
2248415,0.0013808343567294121,-0.12312565289145372,0.007182470340045204,-4.298617630175926,-0.8715086197574207,11.124408109861806
2248437,-0.0026194847878583502,-0.1510558795959332,0.029572026351524384,-7.297491112739136,-0.23263976515115384,13.965094121360305
2248459,-0.006836561392918325,-0.16507954331912345,0.050525279762274694,-12.152388639005569,-0.1230650671461036,15.513208965621217
2248481,-0.01420910708119695,-0.14534373382464238,0.05853178385325344,-18.136357619580977,-1.1589400361332738,14.807338893500503
2248503,-0.026557580900734696,-0.08910570227382533,0.050283339082874905,-23.300599195244892,-2.628997393891159,12.814795820333977
2248525,-0.04050664175288863,-0.021399793636569908,0.033972614845051534,-25.56033281617787,-2.75727189156734,11.986930235598216
2248547,-0.048288540000971124,0.020935152272556483,0.022710227780101646,-24.341373407547557,-0.3206663289548144,14.000241413579891
2248569,-0.042992246537699744,0.020155799023808124,0.02304325340361401,-21.130095855203972,3.9012644630735354,17.96091966027539
2248591,-0.023415457580496672,-0.0065842702054735745,0.02903090996815313,-18.273941561914747,7.470247447499497,21.346658582924352
2248613,0.004371219066064759,-0.02269786053793753,0.028194864321524137,-17.275561182934204,8.299576366601052,22.909067813915655
2248635,0.029201871516345002,-0.0046347076230347254,0.014362546236326018,-18.171525894427347,6.4089600286751764,24.00114387384204
2248657,0.04073945110957561,0.039573243724660936,-0.005467851288969483,-20.05164708551627,3.6565358634559373,26.440245754428943
2248679,0.035615234411901085,0.08267996756971652,-0.017779530933240275,-21.44814466171852,1.738547841000042,29.761364652623264
2248701,0.0178385257483777,0.10551465532923093,-0.015535680393979965,-20.090879486913263,0.6084788403376873,31.859553019400227
2248723,-0.005423080800583659,0.1081386784935897,-0.0035130211924172382,-13.499598239146106,-0.9999273262287337,32.111998474254115
2248745,-0.026060912066260926,0.09822505458018874,0.00809212746012438,-1.6314484509340335,-3.7359122094799457,32.26379900781499
2248767,-0.03676008120827551,0.08108232741385657,0.012661377974681486,10.760217971774239,-6.78800171247227,33.78909282316274
2248789,-0.03788969531389736,0.06650690214356547,0.00976591294446744,16.195770331113838,-8.855472214571433,35.643890093739394
2248811,-0.04129887844268131,0.07354424348049624,0.002108739109801169,10.570615080727762,-9.320308865590947,35.296006685175094
2248833,-0.058351102732761485,0.11392573588984746,-0.007657003861046624,-2.884763140803585,-8.101939647451976,31.272527402492713
2248855,-0.08280831020422752,0.17212353596752364,-0.01785271502778353,-16.327583540784726,-4.940576097530602,24.41827379640315
2248877,-0.09328117509389565,0.21309629125765678,-0.027509509273352814,-23.742933958165423,0.3467569727936348,17.342381106552555
2248899,-0.07568080072365506,0.21339134465131118,-0.0357564116137121,-24.534691291293818,6.847479696854325,12.811743188750238
2248921,-0.03882565360604035,0.18069422929168655,-0.040946106162541684,-21.83992396051327,12.388763033528207,11.943046249756831
2248943,-0.006319655821582674,0.14428703980207036,-0.04061299031254702,-18.820891498920048,14.863507019716774,13.430759861527072
2248965,0.0037484270737168346,0.1325552588092752,-0.033689403769045445,-16.811052070002333,13.837222256940342,14.638174761056305
2248987,-0.00884644728437805,0.1571975474463244,-0.023588954894859276,-15.705358131523834,10.83045184785145,13.635622025532873
2249009,-0.02934665510159408,0.2072163148390002,-0.017712615016741658,-14.794773709949299,8.0113173259281,10.382637548311681
2249031,-0.040343675440732085,0.25265295549717914,-0.021392030055764986,-13.287551935432083,6.5810805505562575,6.33550339744021
2249053,-0.03391913519540389,0.26276333567624166,-0.031631583486029485,-10.98164744705471,6.293181290555039,3.1411449792862394
2249075,-0.015911624385424962,0.23153441918328316,-0.03878605744619882,-8.78156801139735,6.262823397042571,1.4875826844227826
2249097,0.0004033410992730635,0.18621133314122817,-0.03627486817994208,-8.019010172348484,6.003785862233181,0.9459273327472609
2249119,0.0063254498861475845,0.1643520245431282,-0.027953737306800765,-8.906467577730592,5.683827578450725,0.8585524550249699
2249141,0.004460351985540636,0.17957078242031427,-0.024131416997355836,-10.040683587834364,5.582931660124211,1.1958691237826706
2249163,0.003108677414455526,0.21251216906748938,-0.030512087036855838,-9.822704696428238,5.547301140097297,2.245264403455343
2249185,0.005354465570904359,0.23521336233141144,-0.04288766294633395,-8.087481288279257,5.138462316850119,3.609267747781981
2249207,0.007255539282122367,0.23746966223971966,-0.05283288750677363,-5.929222179538311,4.2865955016787956,4.151246644467788
2249229,0.006745401158527637,0.22658445342858058,-0.056289259588526284,-4.232321564192572,3.5283828291273336,3.248468225032281
2249251,0.008619868914565296,0.21088540765234526,-0.05523623828312743,-2.987923362874907,3.3767232877991153,1.684198393448372
2249273,0.017135214579481202,0.19364107219771975,-0.052834954986039594,-1.9195079856826545,3.5926754219985004,0.852239719341927
2249295,0.027476919645922863,0.179104081738849,-0.04950302602646971,-1.0419396610043128,3.3866020934901946,1.2434673950824235
2249317,0.029590607472153554,0.1733041216831295,-0.04382007276549698,-0.39737209340974033,2.367500550794221,2.073223341152217
2249339,0.01991785283836444,0.1769769105243141,-0.03558486009307477,0.22762578072063844,1.043613453105726,2.3194913015881258
2249361,0.00588029831182043,0.18436459254179813,-0.027180334226421514,1.0117648852206091,0.2673580983290985,1.8104986762108943
2249383,-0.0018273367836899978,0.19092630232312507,-0.022316053474549465,1.8728154723424233,0.3650733422600573,1.2325967766370975
2249405,0.0009105667859319617,0.19680747650439756,-0.023263177429918444,2.8160002279702656,0.9747585469131116,1.2371545589255637
2249427,0.010177442018366034,0.20031261604540637,-0.028433693334928786,4.169303201487225,1.5837697424661732,1.6732066365312661
2249449,0.019781317057498148,0.19409643073973196,-0.03274630885833951,6.010913615705883,1.9524349200444473,1.7714488000620796
2249471,0.025936525344839766,0.1742670511559391,-0.03165184185530435,7.517281277478021,2.036261893884089,1.0870183296690126
2249493,0.027474535741111444,0.15068064512326357,-0.025473105813902705,7.476169212697144,1.7956143145246144,0.0946634389678997
2249515,0.024954622640361527,0.1405099820335584,-0.01920893567065994,5.6697880690606395,1.2401704612434326,-0.34913646964246675
2249537,0.020706984803334362,0.14962522345157897,-0.017546518974764017,3.3692901578756165,0.5257019237799002,-0.06889365268649722
2249559,0.01751640780612296,0.16522550138061678,-0.020237711917355943,2.1158119461399787,-0.13476121438430083,0.19544942278897445
2249581,0.015598648551025255,0.16996194424372066,-0.022704703418633874,2.181686319766536,-0.6088225985785152,-0.2637111897980295
2249603,0.012204224523736061,0.16039897973419423,-0.021272752730340565,2.5578203024562476,-0.8115372951049141,-1.158747803605833
2249625,0.005908515395510815,0.14810886752911973,-0.017380351678457102,2.3597767420998643,-0.5996293059248307,-1.4333940643304377
2249647,0.0003075684977647918,0.14450884891992946,-0.015827373063360736,1.7992192441692108,0.13552291456193344,-0.4052208508023917
2249669,0.0011704505218300659,0.14923860907604553,-0.018793828686734897,1.6069291330355788,1.1870362958666978,1.5013382491556722
2249691,0.010023422541584323,0.15369487592139833,-0.02278693009519408,1.9173274244285055,1.9613697401415102,3.167126916038617
2249713,0.022976606539002662,0.1515532972572266,-0.02253911954644153,2.1920550776179395,1.9083287739286598,3.7919735681246487
2249735,0.03620065661195582,0.1437035873494273,-0.01734204653820393,2.115577557099528,1.1078096639612438,3.519962969611036
