timestamp,ax,ay,az,gx,gy,gz
2360153,0.001965493725929751,-0.003925774659721111,0.004963184253769012,-0.41421873885960736,0.0660005374794639,0.7032528340172375
2360175,-0.0022105752890214637,0.00016744104187598114,0.0035543385810757385,-0.10086985077638691,-0.1700479033248695,0.41966491322656396
2360197,-0.006689608684983643,0.0017312005715934395,0.0028134912921322567,-0.025407470203222756,-0.28797030962184134,0.20309463872567218
2360219,-0.009833737450601872,0.0017212001352111283,0.002478913300599131,-0.18789930070619418,-0.19384630922901494,0.038191024812262664
2360241,-0.00882251674692924,0.002645836813291901,0.0014759921140257708,-0.33591023837469897,0.10247947610471232,-0.1389098781017041
2360263,-0.0027132238343163975,0.00429969105018434,-0.0009329620632552483,-0.21188436841432082,0.43066561261038383,-0.33157806620723995
2360285,0.005474427414341048,0.0036783462329725335,-0.0040292711714108725,0.17442925754927546,0.5400472274460394,-0.4423604705713399
2360307,0.010361266432580727,-0.000985933513807292,-0.005746796831666895,0.5385725469820568,0.29145634841154866,-0.3642775382704839
2360329,0.008493240144563142,-0.007679641571268731,-0.004198517252470131,0.5826365173943808,-0.2076702476118765,-0.10375951405887655
2360351,0.0014812239261139716,-0.01207607591722711,0.0005343417461590601,0.24605210365669994,-0.6613606072865976,0.19611492684865425
2360373,-0.00502134505349075,-0.0105395837034012,0.005964012162718818,-0.2633928460253235,-0.8015916892098348,0.350090375036498
2360395,-0.006012971506608784,-0.002449936266816605,0.008798849740719561,-0.6091420259395663,-0.5897115404529686,0.26736534017148655
2360417,-0.0016031432078216932,0.008530622258232293,0.007555753808135723,-0.5070738506660459,-0.23752905949825256,0.03486905426222465
2360439,0.0031210284719207747,0.015592099402807185,0.0038707537027390052,0.09979822376016462,-0.02326167689289345,-0.1399601281878133
2360461,0.003246865854535075,0.01336994299352869,0.0009404135117146999,0.9407422970826702,-0.05545170766469955,-0.12282414692503636
2360483,-0.0008807155038528516,0.0028206708188850656,0.000459545527208114,1.531808964726009,-0.20701142258847238,-0.007150124534718725
2360505,-0.004468357769023996,-0.008745645496107006,0.0013910240277898603,1.5142827147921205,-0.28686663178853605,-0.03909524702534562
2360527,-0.004344841967278973,-0.013187606623693865,0.001782585349862655,0.9647016010685183,-0.25337882939478107,-0.3713720737443645
2360549,-0.002946825770951833,-0.008217310752557746,0.0009269031872545984,0.3853152368967643,-0.2178249846642763,-0.8997465320127861
2360571,-0.004863776903947508,-0.0003696823654027703,-0.0011215457732092111,0.342271459642747,-0.2538601764733344,-1.3052469353121674
2360593,-0.009820371170229176,-0.0017424716124622122,-0.0056245519224349455,1.0073600146327175,-0.29926580337532666,-1.2026697772626374
2360615,-0.011029525782179132,-0.02129543163388081,-0.014973172190383167,1.9512390483557218,-0.32813260707789416,-0.2961987882446255
2360637,-0.0020112250104508934,-0.056060530724633004,-0.02907900315646894,2.377994573669952,-0.5927128497152145,1.4697144383146803
2360659,0.014913998218765365,-0.08990604089587224,-0.04234113180809818,1.65609613333024,-1.57606761770939,3.8304107161387515
2360681,0.027768953845434218,-0.10257662758493657,-0.04587509481308192,-0.24845120313970898,-3.576913963163496,6.296870090954963
2360703,0.023695918019756203,-0.08302470750654486,-0.034155880799233894,-2.7192826442738616,-6.260273078486226,8.385763949519522
2360725,-2.1123666413118978e-05,-0.037805205438996806,-0.00982929153300099,-4.765250471602745,-8.62536931692207,9.82651435367
2360747,-0.03269110245610268,0.010559642644844654,0.018153712108606744,-5.449305200711561,-9.531763079766185,10.65404184094352
2360769,-0.058371835792589075,0.035091435738212245,0.04127573524456332,-4.408145629433683,-8.425692916273595,11.137399414803339
2360791,-0.06891494795852636,0.021568463170444398,0.05672693770311077,-2.3051817124275216,-5.666351424857125,11.482336360237277
2360813,-0.06984569257510165,-0.01827243478596742,0.06669569929272778,-0.7270014821144257,-2.151196707558344,11.468846483984972
2360835,-0.07229359166488046,-0.05050408930587417,0.07294716124659713,-1.1399363822660753,1.4271907952999752,10.530158203917479
2360857,-0.07781921793442323,-0.04360240479223319,0.07239354197412351,-3.437823329662199,4.98589677865285,8.5472979229945
2360879,-0.07262337480656628,0.002526773529029883,0.05869440317283566,-5.528770125809667,8.712307304299719,6.618105424803066
2360901,-0.040495824901852814,0.05060015478315559,0.029294732764001123,-4.977423904876128,12.32722868367492,6.503995020086945
2360923,0.016586762702741453,0.054079247950433854,-0.008716259138719385,-1.6981303962478533,14.787066747288499,8.786251441257699
2360945,0.07280059232027003,-0.0028870025078536706,-0.04069121653944318,1.0611869222049815,14.92617877157361,11.843200158891548
2360967,0.09671732351189319,-0.09064154306464434,-0.05407201002450091,-0.82641479555563,12.567859430921398,13.382839958308002
2360989,0.0771655231029358,-0.15797551728636233,-0.04741034576899568,-8.348652527739723,8.980011296531826,13.05568186447691
2361011,0.032084586662707484,-0.1709186525992709,-0.03052008045389254,-17.88693291308797,6.058683617535947,12.856361084703911
2361033,-0.007180624213828717,-0.13182226497455313,-0.01582525982569003,-24.099342601762444,4.904181286411761,14.575413363509625
2361055,-0.020743833778545544,-0.06892616315219742,-0.00908869322284299,-24.34795632383403,5.122063999120086,17.365686536749475
2361077,-0.01261799768053792,-0.013807391940736605,-0.007320286317914961,-20.323076637303327,5.462388051966002,18.513890408453868
2361099,-0.002583505145031513,0.01415386715430212,-0.004040650872714956,-15.692026725959916,5.099352838357481,16.691523601018147
2361121,-0.007234624970645037,0.01161741750129484,0.0042998018775725405,-12.62049344190625,4.340887307228114,13.99377494193211
2361143,-0.026699921379256204,-0.012533586989056706,0.016387471840705586,-10.585632189496168,4.246114147822846,14.35364968175451
2361165,-0.04628953765185254,-0.044428607365881355,0.02875664940517102,-8.0587346696485,5.647905772410479,19.808010412809235
2361187,-0.0497425220465391,-0.07219718354483921,0.03909240241808811,-4.806418144875902,8.446572700409195,28.32503429633266
2361209,-0.03245537105417866,-0.08949703932252528,0.04682091747095823,-2.420498193577881,11.662159583546977,35.35379633459013
2361231,-0.003736857630972965,-0.09389995637437241,0.05134213971250385,-2.832626598649955,14.100414806349791,37.66438993365821
2361253,0.022919304095847408,-0.08138662836278186,0.050605446485736484,-6.514101075965716,15.038660281671211,35.849936473669274
2361275,0.04058035129834111,-0.043857798366356913,0.04213254353475647,-11.96935802569883,14.417951182704455,33.12621300750296
2361297,0.049757811078550165,0.0223319812866195,0.026010598426727233,-16.632663987838765,12.635261633154816,31.75433766216563
2361319,0.052644064431938344,0.10237257363728461,0.006806934926786905,-18.315459921986637,10.388465939360781,30.907316899040158
2361341,0.05196221185331553,0.1640234346018636,-0.008555485141654953,-16.486885026640863,8.56989840053757,28.190602140912063
2361363,0.05447715053475396,0.18290248284156468,-0.016065792871757904,-12.803317847554524,7.788358736723665,22.858601051431357
2361385,0.06781954391892245,0.16860865471868586,-0.01789187048560842,-10.155403385531045,7.707954067948388,16.962619021999593
2361407,0.08957557110718177,0.1578108722970327,-0.019525102365718763,-10.334653253988249,7.150623750209721,13.336545680769651
2361429,0.10458893470886933,0.17595441716810428,-0.023459531180038337,-12.24682250255377,5.275123804545051,12.909109090663394
2361451,0.09965068978393941,0.21058682917573696,-0.026767787117680176,-12.853806219987435,2.6359189696965752,14.098487693184998
2361473,0.07973954791932775,0.22859852145372117,-0.02544479368291607,-10.286427197002295,0.7312203932190434,14.429087361926882
2361495,0.0641218721152942,0.21576645009888606,-0.019684999373466558,-5.814218498568669,0.4013625736995485,12.476034866870553
2361517,0.06572319142833749,0.19064096572941744,-0.013396845281714335,-2.441320936966987,0.9558617167156769,8.551162002449658
2361539,0.07884982072026592,0.1798815965091601,-0.009491468093036326,-1.7943939595993161,1.0712010055027072,4.0553351273870994
2361561,0.08871517433582353,0.18903994811559335,-0.007584507355387294,-2.7891304411124263,0.3247671849228243,0.40869097231095003
2361583,0.08884551686310427,0.20197581121196465,-0.0061098706988197546,-3.1906968512494065,-0.46305730042612103,-1.6055160863195581
2361605,0.08558935356475011,0.20304055608638932,-0.0048559273596447084,-1.9004886358706101,-0.3488685224296044,-1.9391005274906314
2361627,0.08744441709410473,0.19259861923520566,-0.004799126061436162,0.47746502661474743,0.5841040825647866,-1.1841146803705023
2361649,0.09424426767773297,0.18096280027464598,-0.006364648797791854,2.8275058248087794,1.325688199330913,-0.4420199173216349
2361671,0.09809628957428503,0.1726889729533069,-0.008576187632519588,4.684220775664613,1.0078495967820689,-0.8652166601551745
2361693,0.09259334130850967,0.16128709094937355,-0.009819716662250427,6.179325565095985,-0.3312883508153506,-2.842328395018636
2361715,0.07905729417543249,0.1392897358384751,-0.009198984984385176,7.340584694862805,-1.9782952685685944,-5.561588445822042
2361737,0.06465728174405329,0.10937558710456231,-0.007172051149777861,7.903544350172167,-3.263393171794134,-7.62108818543411
2361759,0.056337291798811716,0.08155644721766354,-0.004914043364901859,7.736518782489289,-3.954196242645358,-8.169394081308925
2361781,0.056185409094116415,0.060947868140063456,-0.002940306041971908,7.002673872826562,-4.180712611887227,-7.352468851319638
2361803,0.06022900309168461,0.04429694112449292,-0.0004456076270429768,5.735731789480873,-4.240320640904036,-5.763639070090678
2361825,0.06072391937747733,0.030333376233024303,0.0034945660782225167,3.6304761559266994,-4.41345283135788,-3.8387509639392636
2361847,0.051889159423438955,0.027320405384341547,0.007902998068625135,0.6586463776202593,-4.707784813046635,-1.9192992777332858
2361869,0.03597109392199103,0.044212598315289765,0.009852496271451378,-2.2362269099323253,-4.743069840619376,-0.5586632070798365
2361891,0.022900971222524193,0.07616863326035109,0.007251304686487838,-3.559575448961955,-4.116513097479494,-0.34973949405341365
2361913,0.02130867046794487,0.10486742826318775,0.0014203762615748563,-2.637346252481787,-2.984650012916408,-1.359304080720142
2361935,0.029492945229245778,0.11503544423747732,-0.003895204689843408,-0.36092455365252857,-2.087126669979796,-2.907212743057526
2361957,0.03711923257172855,0.10759702624411073,-0.006187723178754089,1.6941583371047515,-2.0132494667817373,-4.07705170487583
2361979,0.036248321190072305,0.09474450223242253,-0.006295487025025261,2.7953837610140844,-2.5332300375632695,-4.444962558146785
2362001,0.02898867896948558,0.08505567212087976,-0.006591096391952776,3.4458751137098313,-2.827051829150454,-4.221339417338995
2362023,0.02348952702650833,0.07721059886992508,-0.0076316608528260105,4.324682618183692,-2.3722213327903554,-3.765116448298203
2362045,0.024082106998077665,0.06718812276549861,-0.007485843867863236,5.240498632997742,-1.4829511981201158,-3.211259521021563
2362067,0.02748107264728852,0.05639742066833165,-0.004530212044478534,5.39073741329688,-0.9268486316380993,-2.608920291893344
2362089,0.028433145144980507,0.04965718006128187,-0.00013152776921381725,4.485448737047377,-1.086007798906083,-2.1211935387879173
2362111,0.026478653807559923,0.04772559484111037,0.0021117469025549104,3.2644739991729903,-1.596060125135719,-1.8836248967326412
2362133,0.02529091630033188,0.04627143885245426,-0.0003205415163420675,2.746874687004025,-1.8267280233315082,-1.8298525374738845
2362155,0.026697178758468647,0.042462097359958755,-0.0065096474092032515,3.100729826024146,-1.6159061513603443,-1.8240873826783721
