timestamp,ax,ay,az,gx,gy,gz
2551597,0.0023475180011614223,-0.017475103808149074,-0.0021540639939758143,-0.4301259718553484,-1.1516755616781618,-1.1071891309671262
2551619,-0.006912637347702286,-0.0023683839018815893,0.0015289767171075676,-0.6030511300360318,-0.6207859762401838,0.10948737677919547
2551641,-0.007755287175300112,0.00568516793449093,0.0025788983961564298,-0.3821666647491233,-0.09018740119526505,0.6021069974636415
2551663,0.0010990326047627444,0.003991664426858995,0.00015740788433998149,0.19671165167101223,0.2943620977481274,0.2152410401128934
2551685,0.012262347613035204,-0.004059316525227678,-0.003775156094655245,0.6670551225911326,0.32527338913231996,-0.5557691075346194
2551707,0.015630038701222114,-0.010950227139984517,-0.0055379298532039775,0.581628732389388,-0.0008678663819040393,-0.990808967197944
2551729,0.007607076660839797,-0.009910733945180295,-0.0030020357823798607,0.01657603484919988,-0.33639491181799486,-0.6949441920101594
2551751,-0.0047603840960583526,-9.530907663613132e-05,0.0017341732161794444,-0.382462890015352,-0.20963735567002645,0.12534108311058537
2551773,-0.009774091733786579,0.012078376281575917,0.003737703316037634,0.04299543971424616,0.5085293826600512,0.8212698564620946
2551795,-0.002449108626890381,0.017843693453891894,0.0002120281823685967,1.2840841982778723,1.3803840285341764,0.8071750039523986
2551817,0.010094372989406023,0.013770970662162109,-0.00607977176006406,2.5934206356455656,1.7426742936561586,0.06236059452940159
2551839,0.015600585110938764,0.0046115183262677925,-0.009249870738073387,3.195047606143182,1.3380989862761257,-0.8361613098445864
2551861,0.00957545113804033,-0.002155690241215996,-0.006513999697206986,3.0548009005817995,0.5863645261160502,-1.2434089938529307
2551883,0.00038141281044866085,-0.004275667043081496,-0.0013309971309191917,2.832071769758223,0.17474117948894508,-1.0048736930891997
2551905,0.00021085270537133467,-0.005979830136153417,0.0003198478351602854,3.042704712583071,0.36626038656376847,-0.4495543387517357
2551927,0.011329916931608616,-0.010912846962016989,-0.003769318272068132,3.428087531458685,0.7566861930562904,0.09392032760022381
2551949,0.02313315952196442,-0.015297841508598118,-0.010503676099784464,3.3041746756589885,0.7474573075972908,0.611850914808574
2551971,0.02347844082248858,-0.010305233328612358,-0.016040294716474217,2.4332224619375546,0.20309618408681515,1.158522163133327
2551993,0.011500660328048225,0.008169752131888919,-0.020652767779952497,1.2957227585392668,-0.4336705132374227,1.3764084625679232
2552015,-0.0016155352438587149,0.03313210427662748,-0.028571210218839294,0.46863737719817244,-0.6539269123755937,0.4782087517056041
2552037,-0.0034023951751396128,0.05041951607959323,-0.043437296526783034,0.021264209209615345,-0.4637965835844607,-2.032799246408833
2552059,0.008790052099836026,0.04873931908209669,-0.0640394072034553,-0.2688079972118032,-0.5271606807192302,-5.496030897723403
2552081,0.025367798779335156,0.027099835068962755,-0.08428479198857895,-0.32802957827421225,-1.7877966915399452,-8.099579122818767
2552103,0.031699022268788186,-0.0045290265453348305,-0.09783307217652587,0.18664938772404593,-4.777902121587684,-8.10848609539871
2552125,0.01989145022639244,-0.030312041551468567,-0.10376438792163808,1.2574214588668935,-9.05025850263165,-5.336368198539483
2552147,-0.0036542654154435093,-0.03697835239414628,-0.10778479622655801,2.2872199403406395,-13.33457442295071,-1.3444984009423906
2552169,-0.023145356381037898,-0.022448425297655002,-0.11669510823380166,2.7317368584074884,-16.54730007774108,1.9261297870044218
2552191,-0.028914320585295784,0.0008171352124008839,-0.1308887294286229,2.7248490118009303,-18.735804317197747,3.5865875511997145
2552213,-0.02840120072343476,0.012957004913028352,-0.14297608023484248,2.8397570309120113,-20.76357921099347,3.815414293793145
2552235,-0.038661648376920696,0.001213431735422111,-0.14450157275543163,3.390018481673972,-22.85135145785893,2.9725100062951
2552257,-0.06640604632699842,-0.030884645397423933,-0.13334527767686752,4.201342961616812,-23.596931440158176,1.4237363996151609
2552279,-0.09821296936274358,-0.06813431039080156,-0.1139405264364998,4.869918008801035,-20.80203859336491,0.19892676743626153
2552301,-0.11382717116511058,-0.09518947897919436,-0.09153048935989307,4.841689166938251,-13.463453367468528,0.8529696125463987
2552323,-0.10791873455075748,-0.10275616079121805,-0.06821153373267727,3.343191208593504,-2.9439560072329014,3.7874805330031043
2552345,-0.09433351686789802,-0.08701283216204747,-0.04482988037831655,-0.13033277159825948,7.768200951400674,6.853319893660643
2552367,-0.08799847824006236,-0.04940280404201272,-0.024800816433796606,-4.89742760661821,15.823455016139127,6.606148263675035
2552389,-0.08753251092040512,0.0013925328366390208,-0.01367564661265734,-8.981796390255223,19.647552129513365,1.7111749103910863
2552411,-0.08012582706835353,0.05050533735215689,-0.013856547657978092,-10.381920257476477,18.886610447291744,-5.102041604353503
2552433,-0.060976769622643964,0.08277337497305913,-0.020280512502148684,-8.562407520548128,14.065737141076385,-9.166185965211415
2552455,-0.04112847793269924,0.0892308113698745,-0.022684737314568385,-4.736908268811062,6.811786418710923,-8.150267483591199
2552477,-0.03442219439024166,0.07118456350040413,-0.013323724720137094,-0.9409483318903913,-0.08506606295609326,-3.8703857565512485
2552499,-0.042405556926331855,0.041524597019934176,0.006942106346766221,1.1600992409987168,-3.9953590079631884,0.1688651413913807
2552521,-0.05606663970510393,0.020062813252284144,0.030011733294235305,1.1499599841341428,-4.346939142291498,2.3641274159857324
2552543,-0.06772761969335696,0.02021081778260911,0.04781647107607298,0.11751151880996025,-2.6975248458018153,3.627525913848001
2552565,-0.07456040419018137,0.03617199150508132,0.05794902570069094,-0.19147175232015698,-0.5976163723954961,4.971924130141204
2552587,-0.07249018225444957,0.0470179101082343,0.06252826907378474,1.0076326029444487,2.050325349053841,5.786401837105586
2552609,-0.05555776074886731,0.0375382858889694,0.0637053626180211,2.8086589999149987,6.02047050361037,5.115735212235964
2552631,-0.024905532458736255,0.013197997870988526,0.06228760368003742,3.7125986245693983,10.673797206199556,3.7006566614052243
2552653,0.006975138573695321,-0.00741514735374391,0.05945452026148638,3.1242725654726553,13.688164510719222,3.370394244155511
2552675,0.025669514275043513,-0.01128895810767753,0.05679927813973362,1.4407526165332105,13.039161209592613,4.392377320751609
2552697,0.026657453805181877,0.00021911210994735207,0.05443500180374693,-0.8364387931277074,8.92312967455226,4.615310430118317
2552719,0.01572893967252995,0.01644005196149669,0.05120565263009066,-3.3623122531197995,3.6277052182005893,1.833398008900581
2552741,0.0009685487038001012,0.02659737107991058,0.04705127827850966,-5.517593498299529,-0.31922091805168373,-3.609438111520687
2552763,-0.012163347207293795,0.02706899205187191,0.04328556389589607,-6.526238450131184,-1.8988708315651546,-9.063119057178035
2552785,-0.020134318807192703,0.024985105171912894,0.04016839694549186,-6.2456399241072535,-1.8995106946604585,-12.020109452427171
2552807,-0.020667464877850265,0.033549958192663494,0.03616133084697068,-5.325394818130624,-1.8767963554626474,-12.01217030901126
2552829,-0.014105247012868695,0.057824103065907906,0.030751431024695304,-4.287050448722448,-2.8739784127302523,-10.566686424550078
2552851,-0.00376114809952132,0.08397409075895708,0.026748440378591604,-2.903929593122426,-4.8759771858897745,-9.7728259284762
2552873,0.005900741257163902,0.08903831363451614,0.028123440645174767,-0.9277875114229258,-7.135233508245187,-10.57232003509705
2552895,0.011164622005791835,0.06594443220606369,0.03570718943755558,0.9692583271769781,-8.81766810433146,-11.876876988174551
2552917,0.009914486417843224,0.034562334930263686,0.04616864240482364,1.6636100741364617,-9.435710940027766,-11.391816813327814
2552939,0.0023790607739985602,0.02207458268003864,0.05517469277006415,0.9345703038381501,-8.99296642082315,-7.822649558911035
2552961,-0.008263474764652714,0.03462265599282105,0.060298193037130486,-0.25355156504536724,-7.960592692345453,-2.500280983959753
2552983,-0.017398246390373715,0.05473537436707816,0.060696714710308186,-0.9328633309559853,-7.025682312677629,1.513293386819559
2553005,-0.022754796561483985,0.06584737901388328,0.055786180633347095,-1.041338614805824,-6.574793313168965,2.3142609934787406
2553027,-0.026357999805911036,0.07062400623211376,0.04582996556308168,-0.884855778872328,-6.306425429385144,1.0396042509327972
2553049,-0.03143784807225864,0.08096012492002333,0.03327906449446829,-0.2340778838829623,-5.516774463759171,0.5281446591948546
2553071,-0.03799810164561533,0.09704918466805175,0.022020169154336217,1.44515244849773,-3.9181762024977553,2.167743972067117
2553093,-0.04302304588399987,0.10495143710945415,0.014794376057991356,4.028606320929941,-2.0517079442399195,4.401983186213469
2553115,-0.04433831031386679,0.09394119116036766,0.011625941518847504,6.548220345878256,-0.6952041824282693,4.387431852407003
2553137,-0.042403609519816206,0.06971457697154076,0.010624402449159524,8.064874380205094,0.04555201395837036,0.978065577191846
2553159,-0.039115530084138046,0.04833587551690032,0.009738512147141963,8.418570649682557,0.7708603926297031,-3.8603206234335987
2553181,-0.03705986500343434,0.04043628431793735,0.007549627020114424,8.028660570536223,1.86916629061036,-6.5708499353658265
2553203,-0.039250508450256606,0.043749948971936625,0.0029040017850543087,7.245227112781687,2.8595752619178154,-5.206350882201286
2553225,-0.04668260841893482,0.049249200687328736,-0.0053796669361991815,6.152410860620807,2.909657264990407,-1.2616277446722877
2553247,-0.05533249113255937,0.051039356666355964,-0.017812272442532574,4.9079507437755305,1.9290181532326924,1.850311920041453
2553269,-0.05761385154688265,0.04943781682652354,-0.03301415798531185,3.9546837900366265,0.8607322431122808,2.1396407195720903
2553291,-0.04860965548584482,0.04700360817023326,-0.047388054668715984,3.7057003719523696,0.7186132864961136,0.5932730958235277
2553313,-0.030979097628128803,0.04418140108074319,-0.05661491247782132,4.078505434439989,1.4082305313996235,-0.5236776979427701
2553335,-0.013506158941886708,0.03895068802364758,-0.058161457505086986,4.464072539177663,1.6659037653643454,-0.3423207794089425
2553357,-0.004950743751085365,0.029737637009568028,-0.052752088957171116,4.191338058101106,0.25345337185344463,0.0033028666398753938
2553379,-0.008606822058907353,0.01854262537966421,-0.04363542279782552,3.025589538591694,-2.7723666628589863,-0.8587159811502683
2553401,-0.02109322902082613,0.011362296895598915,-0.034469359272721635,1.2808254957938106,-5.960708229298663,-2.7342961389858296
2553423,-0.035374455813989326,0.0143874871294182,-0.027477277935173624,-0.439466267313981,-7.621672059221477,-4.0321743744089344
2553445,-0.04563136187726577,0.02786832126909563,-0.02279780474717425,-1.5802623413310408,-7.152887761754718,-3.4948622449975852
2553467,-0.050656537108452984,0.04352717147068376,-0.018960611931490037,-1.8739242636776834,-5.393725883755629,-1.4553730808073733
2553489,-0.053564059307365894,0.05020881045641872,-0.014008288823272165,-1.4621855324407484,-3.8358831716678568,0.6399640170371523
2553511,-0.058336219590218175,0.044069348362412254,-0.006831128112882846,-0.8113755843936084,-3.4614444223624625,1.6825178380445571
2553533,-0.0659666760420509,0.03322964830728749,0.0017832027293395072,-0.36416199645047986,-4.110162285712789,1.7056679098609886
2553555,-0.07347615419770767,0.03167532447569866,0.009305559002310802,-0.20706779835554895,-4.771322320453576,1.4694127269522221
2553577,-0.07710947283509871,0.04785853246198436,0.0134312070886301,-0.1301759330854232,-4.532690900654384,1.593227134339028
2553599,-0.07676204827367976,0.07779748379730429,0.01449677673739186,0.015110261300525167,-3.4074033295423782,2.116962064757589
