timestamp,ax,ay,az,gx,gy,gz
2579691,-0.0065052678463002195,0.013633598757020044,0.009736306932047212,-0.8917224965297854,1.758532726139521,2.3314514386120324
2579713,0.008988204705029177,0.010308859679322139,-0.0016996972775822619,0.9275849709495382,0.7028328324237886,0.8932873576030144
2579735,0.014720140908266935,0.004225892012589067,-0.007785805328052504,1.9121717835535887,-0.26870628988392375,-0.16409591240172638
2579757,0.00793956926511622,-0.004033156723401108,-0.0067084799414518686,1.7625344564576295,-0.9158844634790956,-0.6453711283969907
2579779,-0.005023303851059329,-0.010592461414344919,-0.0013089569008204848,0.8419027186348289,-0.9950235858435524,-0.6480547283869937
2579801,-0.01367469371252539,-0.011871339558084703,0.00324903588354116,-0.17127019591185416,-0.5639904702179146,-0.4750849582250553
2579823,-0.011959520355052168,-0.008278011455050924,0.0037564666011480367,-0.8135214051144737,-0.039049845501660296,-0.4087494750512782
2579845,-0.0032557879690086225,-0.0037690087574577353,0.0015650570488175773,-1.113134516183124,0.13149080113447886,-0.5201480019039828
2579867,0.0031350612320439194,-0.0011925050756292897,0.0008694985590547041,-1.3772726551242767,-0.12146302795978244,-0.627267356498935
2579889,0.0009891650043852246,0.0013277742731875792,0.0041604976014857084,-1.6935659645861614,-0.4024482265309272,-0.4305225328088618
2579911,-0.007023648083942526,0.007889951793032318,0.009537709988439098,-1.6725281901119653,-0.21970419400217037,0.1926263800742885
2579933,-0.012385442443604799,0.018079063048076854,0.012741313616628131,-0.7789563757792235,0.48718666235851976,0.9238217730902414
2579955,-0.009437501605967187,0.024239809795986098,0.011573281716779512,1.0193179664933905,1.1809979377625568,1.1330365912773417
2579977,-0.0008860605996843844,0.018057860119826928,0.00784204329645103,3.0087457554259625,1.194359681774949,0.5089929999911854
2579999,0.005460755268372247,0.0009467588989177522,0.004913286056171253,4.28952348868926,0.444344362075402,-0.3748231474286312
2580021,0.005118525306959957,-0.013451038730004233,0.003599896371583189,4.607657417258168,-0.40557010860669984,-0.4007174760002594
2580043,0.0012515989849804982,-0.009341025744381887,0.0002168761987120749,4.462298178433937,-0.6298859591848218,0.8378077796885701
2580065,7.554346538398777e-05,0.01672758409395166,-0.012064540545292783,4.2618372408466385,-0.22517666311632337,2.1314277773916537
2580087,0.002557837171370478,0.050102659756193005,-0.03978421107074406,3.5884565113121347,0.2170327384543444,1.4159551518470817
2580109,0.0020424360353255375,0.06747647298333886,-0.08503772244519368,1.753908852953453,0.4944536663357854,-2.1961661114008
2580131,-0.008637297156964142,0.055490617350674544,-0.1421930138515293,-0.7408589420516127,1.3945246936719464,-7.222687064985768
2580153,-0.027308776379793367,0.022510944683580676,-0.19800588173608477,-1.7738367781075293,3.9448922908095367,-11.021619025569455
2580175,-0.0408817571729187,-0.009308910082667439,-0.2363983993487478,0.6240361919427069,7.910202124610996,-12.346774196687246
2580197,-0.035873591651554904,-0.02549280021968575,-0.24561828460667237,5.8580806123578,11.137486007664748,-12.451976677168314
2580219,-0.012066935576240412,-0.03158775737391311,-0.22353052083421995,10.605390642449873,10.646124174884992,-13.459612680373468
2580241,0.014572442395251612,-0.04247681771507883,-0.1782428426704855,11.421087241119354,4.817193467253078,-15.888105557781905
2580263,0.023966861168762992,-0.061451228102176486,-0.12407649412048032,7.445807054064356,-4.938791624434989,-18.120012669003586
2580285,0.008030765468122533,-0.07418790346509863,-0.07483072261245288,0.71906543686696,-14.565755129247169,-18.157206446620055
2580307,-0.024499185730957232,-0.06467463986092058,-0.03767059020741721,-5.5779588487775245,-19.92419088949309,-15.566047155755992
2580329,-0.05694313100533962,-0.033638546304989414,-0.01192521022606564,-9.071211719620129,-19.487437698582227,-11.823065249039056
2580351,-0.07502246811386315,0.0015701274961105872,0.005831587535790201,-9.140679862701292,-14.72570061386263,-9.110082070236151
2580373,-0.06994482385481829,0.0225176686220011,0.016053864922449524,-6.730835525371515,-8.325850742158368,-8.67058773508556
2580395,-0.039694818186592006,0.02107932438856478,0.0170949931528485,-3.505434771417057,-2.641193976145909,-9.897392710195511
2580417,0.006069049678261281,-0.0009164836458954054,0.01078326712322994,-1.1747674905176502,0.5140318113486495,-10.883194985112995
2580439,0.0454720827139046,-0.0336528060239002,0.0034158626058159933,-1.3456170321268048,0.001872316617561126,-10.025666162583589
2580461,0.05685465022755252,-0.058468797580866164,-8.347658641310078e-05,-5.1219767545171955,-3.7473440554968946,-7.094513391468437
2580483,0.035417382544183765,-0.05502700610488148,2.1270334629469985e-05,-11.897425683691363,-8.474415068366003,-2.7560987785681923
2580505,-0.003803115451655123,-0.01927292690882221,0.002193102989753995,-18.735975522383317,-11.722359427524099,2.307630256835263
2580527,-0.03983873449449046,0.02738141900050402,0.008373101914716257,-22.194274555780414,-12.94725141463738,7.083896363344093
2580549,-0.06138084820163254,0.054661595613159024,0.021403832882339338,-21.4676897632698,-13.563475328981475,9.571377815601283
2580571,-0.07022826978751574,0.05246470497242279,0.03883911621988468,-19.19771798074491,-14.753081833811757,7.999628006243694
2580593,-0.0737307533415276,0.040855044450994055,0.052763561373219935,-18.538934770652393,-15.658180446199403,3.2969548836724596
2580615,-0.07617936493280265,0.048745892616219144,0.0569043776978673,-19.702615638820003,-14.171459274505226,-0.7821705856737673
2580637,-0.07643954746196804,0.08383071140060588,0.052706974614898046,-19.95606205716394,-9.519488584873555,-1.1393963460893248
2580659,-0.07195498742211685,0.12628077324520579,0.04758486834137486,-16.876420722868442,-3.751409221469087,1.299446245122899
2580681,-0.06378727749466706,0.15103463295582378,0.047850201458779364,-10.917057835115042,-0.3234942074964314,2.525218958664282
2580703,-0.057069058155436184,0.15045467655025396,0.054202413350169544,-4.582579725394787,-1.029449163573006,-0.21076930631602708
2580725,-0.056268028275542135,0.13271256390901717,0.06326949129961605,0.2038232646084746,-4.4002974662966015,-5.633772002064754
2580747,-0.06007700728491051,0.10625399814883688,0.07099215464339771,3.208387360105309,-7.2701518032800445,-10.112203486882775
2580769,-0.061483406377229294,0.07597378676664236,0.07350574171159535,4.807399378718738,-7.829474397399517,-11.252734596653136
2580791,-0.054239428080367316,0.05114896219868934,0.06772555449863575,4.98551502688004,-6.996027685689954,-9.33446731044562
2580813,-0.040582200245149185,0.043598314712049266,0.05465699750489185,3.8277149430475923,-7.015045563808774,-6.018682522181814
2580835,-0.031882914649705725,0.05381192892234773,0.041196780392317216,2.2039348322965377,-9.101495108769155,-2.7933941413831653
2580857,-0.039270579471595166,0.0681398278261323,0.034810286363968074,1.185489594319157,-12.381921791498185,-0.5015509922814563
2580879,-0.062362634865168146,0.07500361161084387,0.03563750062604752,1.0204567912651235,-14.701953945555946,0.7793688269367935
2580901,-0.08805657558767996,0.07647895965919621,0.036577283633188615,1.2335202164040087,-14.360376155451387,1.8096163520670234
2580923,-0.10119427620937722,0.07855610029813674,0.03198206148261869,1.5056402162400953,-11.447342847108539,3.447867955386298
2580945,-0.09674506017663392,0.07863315505192289,0.02382701852709906,1.8195716874105012,-7.820992085872306,5.44130462065071
2580967,-0.08298958857177835,0.07195297566046659,0.018458148671483973,1.8695471555255267,-5.677839536768733,6.489923793483008
2580989,-0.07421961083990669,0.06437912725205835,0.019808344938805456,1.1424170032197365,-5.840959963539657,5.917706951545759
2581011,-0.07925720233464384,0.0670340348203685,0.02729619475254306,-0.18358283176826007,-7.222069946107399,4.800239187518374
2581033,-0.09456580019449154,0.07941824888575866,0.03819256486991162,-1.0920576779285809,-7.844347737075347,4.89782586370914
2581055,-0.10746395667782979,0.08824780428216283,0.04955574169876173,-0.9234490098405116,-6.442792839806844,6.685297319719863
2581077,-0.10703724906090689,0.08508829594125118,0.05846750686423062,-0.284475980692426,-3.378588409095665,8.862686638464655
2581099,-0.09371384072973635,0.07719257893959214,0.06267404459290414,-0.26397618039401527,-0.32238070370896876,9.709209783993202
2581121,-0.07935716963904886,0.07726869999254865,0.06185244067389525,-0.9873498744392754,1.0352477870679468,8.620146342537655
2581143,-0.07751073982908327,0.08845087563378355,0.05747221183173076,-1.4763787209040977,0.3864780596166341,6.461763338984956
2581165,-0.09186404551962514,0.10396852039987259,0.05101619907669455,-0.8782547577395737,-0.8597911087254232,4.773548385112229
2581187,-0.11315503605719211,0.11724427238709244,0.043007229230455926,0.6684773281208234,-0.8582033314495259,4.540002694362104
2581209,-0.12753672580972694,0.12628592071966852,0.034206249576476125,2.46624504986151,0.86506257068988,5.364117871245157
2581231,-0.12842751396272595,0.12982419307553977,0.02688129817744915,4.08240111375165,3.007530801708254,5.793110892909578
2581253,-0.12036174288266444,0.12540979554361767,0.023487391756938415,5.474611144170465,3.993533577305588,4.721254638584197
2581275,-0.11202002846517783,0.11316585505418056,0.023777237781654834,6.588403538506088,3.6627567740507576,2.5535349649768078
2581297,-0.10717796388298728,0.09798409585933712,0.024173902236548646,7.199285514203981,3.2193081994763935,0.8140640689429943
2581319,-0.10345371711303906,0.08556782032429353,0.020836292873020995,7.149592435041189,3.6508166951752097,0.5492660062166301
2581341,-0.09852431394138707,0.07757771343369566,0.013261377010088095,6.527250773150273,4.6276084875054275,1.3121443432611837
2581363,-0.09473347346860983,0.07251138375881694,0.004506583121825207,5.546455648721604,5.152692085981754,1.8560069960006504
2581385,-0.09596625240915303,0.07046690649486691,-0.002016214950748358,4.378561752133517,4.964619844046575,1.6005053713769388
2581407,-0.10096657168780349,0.07403543362930642,-0.005478765451166339,3.188123125115404,4.796036392188931,1.0439888955686143
2581429,-0.10240372024020906,0.08306265631377416,-0.007264148568721361,2.233012981606143,5.155152065651705,0.7505402873267903
2581451,-0.0945356802774561,0.09079424279693163,-0.008323049739795939,1.7482819004017833,5.275225913046339,0.38458249407811884
2581473,-0.08120861464663705,0.08859941942928122,-0.007701869322049583,1.6843746929487928,3.7669772926940355,-0.9305885050362627
2581495,-0.07382511775940781,0.07535074001435159,-0.003658639089359339,1.6664053011009976,0.4458155700855246,-3.4438895960975713
2581517,-0.07984543880987587,0.06047142515191594,0.004429121855638366,1.3017517690207059,-2.7601545450797187,-6.221540738820313
2581539,-0.09404940779301421,0.05591516858697397,0.015385640771690877,0.5198369151607972,-3.1254170748764465,-7.710941295131754
2581561,-0.10279747858252093,0.0644119424282031,0.026796760328421453,-0.40805745720109626,0.42393779485780797,-6.706070132287712
2581583,-0.09730453725586699,0.07629011005391069,0.03586945411681829,-1.1455066636998785,6.225546743566562,-2.938923594314368
2581605,-0.0817700790383253,0.07967932254282453,0.040224270995476215,-1.5527093901424998,11.377352123454484,2.8214890960153283
2581627,-0.0682797227245153,0.07463715160762623,0.038519440823066665,-1.7098299295384154,14.295748753323025,9.017760355598941
2581649,-0.06542031374017848,0.07534995131941985,0.030638401973796817,-1.7620229214177456,15.706384527830938,13.924908844711563
2581671,-0.07308129520884171,0.09606628874889789,0.017594999387969323,-1.7914087990882386,17.269125925776905,16.58549161274066
2581693,-0.08614187568857715,0.13499681170219333,0.0015309425801513774,-1.8141884399074066,19.614986866706847,17.51555435647381
