timestamp,ax,ay,az,gx,gy,gz
2474333,0.014912934051390993,0.0005367034787083124,-0.006472158304522756,0.7323214413235958,1.2988381817459165,-0.12638678415903173
2474355,0.004851443372305,-0.0036755934869100552,-0.004555655140596921,-0.24152892096544612,0.06191791808636678,-0.5989438718646375
2474377,-0.003151642320224757,-0.0028354580475524493,-0.0012910240844460402,-0.9270021525540231,-0.6433336384631719,-0.9145248350756737
2474399,-0.007396671039524901,0.002585291961751048,0.0031360763604726897,-1.075814439790463,-0.6319105147681907,-0.8732522138361267
2474421,-0.0073346885480136525,0.00728437636255878,0.00684322680043455,-0.6411420373631177,-0.1554486631309185,-0.38548925535670353
2474443,-0.0042336290814214824,0.00693655388763114,0.007656218686181651,0.0933930488105767,0.311635795860927,0.3325067072903242
2474465,-0.0006576462549961841,0.002370115021835169,0.004926259736066677,0.6614110667937091,0.4175224684440391,0.8486266969286883
2474487,0.0011715547966778058,-0.0021509979640351507,0.00024577204512612875,0.769860106146203,0.15655762744869944,0.8956367892532879
2474509,0.0006169884982509765,-0.0037917578465694966,-0.003621688304773359,0.5002472885403799,-0.1918699013450601,0.6144520004984334
2474531,-0.0015926133467396764,-0.0033495134133361914,-0.004785091339830225,0.14887603665757213,-0.3444013664552407,0.3409737729770888
2474553,-0.004372989783185729,-0.003034864034707808,-0.003450459281394244,-0.07614719772999541,-0.2532879204059936,0.19764949731179726
2474575,-0.006900583016281544,-0.0035120801403707887,-0.0012768987144157725,-0.15636396260307775,-0.09068928781926353,0.0040778153235584876
2474597,-0.00862581780062427,-0.003940015027133725,0.0002927422670981419,-0.1320325431918951,-0.029741627923312683,-0.4113414502371583
2474619,-0.009186797799050564,-0.00416817889157757,0.001026230522407254,-0.0005819576150293037,-0.07015172128850364,-0.9245995187919864
2474641,-0.008518638980725846,-0.005382966867716364,0.001547311796782151,0.2090932627844344,-0.07299752033802291,-1.2037411983015252
2474663,-0.007026870536043355,-0.008046599793827547,0.0023710539291571164,0.3542357585743292,0.07307567294422987,-1.0265894897801124
2474685,-0.005495146245117121,-0.01035389137440327,0.0033281653331310238,0.2913897787952256,0.35010864153591925,-0.44233349015851836
2474707,-0.004517238297698413,-0.010158442671609766,0.0037177302420741145,0.07114859729028912,0.6558256389760233,0.33703338577114444
2474729,-0.003893663679456067,-0.008204379802002339,0.0029914698332047735,-0.09737410848393922,0.9005460274671477,1.0951832291098902
2474751,-0.002934497867924707,-0.007874286544806873,0.001435110372630532,-0.12352646637306564,1.0407485789348743,1.6633962442795283
2474773,-0.0015982033471928039,-0.010992607242464064,3.2101928710797024e-05,-0.14624332724251254,1.0620918779347936,1.953368260587075
2474795,-0.0008975671670724826,-0.014994951149806753,-0.0006323087210602701,-0.2545649271637762,0.9832721199081236,2.025173991789478
2474817,-0.0017908425567990977,-0.015547512431431643,-0.0012523566292161974,-0.2595204515297339,0.8736487901125304,2.050267548516367
2474839,-0.004001846273773764,-0.011248692026734975,-0.0036141521642449404,-0.06927061657322839,0.8484631531411424,2.118554188056447
2474861,-0.00615266589624229,-0.0039058524375013984,-0.01010968296304086,-0.3173410339742854,1.0536816828956577,2.1361408225449456
2474883,-0.006527295490776659,0.005213813397425454,-0.02323705194394871,-2.1163929100175323,1.5877785902219232,2.04455728321922
2474905,-0.0035178268567729134,0.015776997977883275,-0.043351156659708893,-5.619045665747594,2.252544587591356,2.1567221256049183
2474927,0.003496277792591396,0.02362744580900736,-0.0646809950246111,-8.969217658297174,2.3081250534521596,3.0840597976864497
2474949,0.012202847555616644,0.02043407181624137,-0.07490740256248556,-9.578300974536074,0.7465941493338746,5.037081774667676
2474971,0.016552467757624416,0.004427739054644684,-0.06332736282946883,-6.9779128602300045,-2.751038995790236,7.078216253879658
2474993,0.010185244878251662,-0.009147987571511312,-0.03304750752913071,-3.7302987798017453,-6.970669771548098,7.366266132222825
2475015,-0.00741192419514908,0.0032674215392058774,-0.005110162854708148,-2.525039111516751,-9.571828999095159,4.731543977999153
2475037,-0.028414382695180988,0.046582218881463716,-0.008294534322259399,-2.5968515194880415,-8.816656342488153,0.3394409569266248
2475059,-0.04179078794116414,0.08909605810546128,-0.06110661609134944,-0.2583563609682335,-5.249378189278096,-2.5531596403126087
2475081,-0.04255312153886499,0.07974777487517372,-0.1580095419631191,6.324542543070039,-1.7811462934033144,-1.2073877143721234
2475103,-0.03758418850904356,-0.006260397229860466,-0.2683360934641237,13.388035065032529,-1.8499824622239607,3.8629653987006676
2475125,-0.04207061859087513,-0.13297167165131044,-0.3503513748786446,13.581984258312474,-6.7568951707424025,8.987441304850819
2475147,-0.0661379725720204,-0.21768863988263917,-0.3749335733961581,2.5531244946033427,-14.104150124677469,10.61327798529054
2475169,-0.10142398110485967,-0.19162970075196403,-0.34276820105445777,-16.041541922138734,-19.01057988771359,8.720252777974977
2475191,-0.1242699976262869,-0.06052434330653251,-0.27882868817292217,-32.26504100117018,-17.857049100367565,6.826202099409601
2475213,-0.11888185907629954,0.09156268616506834,-0.2086616253009162,-37.40730859007656,-11.567326071465258,8.209072629650896
2475235,-0.09666676471189359,0.16804004838118106,-0.14159071065040896,-30.701945907513316,-4.996676941321199,12.001908521566076
2475257,-0.08589170249361229,0.1395906810890454,-0.07588125170055285,-19.212202992044837,-2.5925887630083078,13.507223743077214
2475279,-0.10060942517703189,0.06020433960934831,-0.012280823599491456,-11.302530824926926,-4.587121491961007,8.870331003241686
2475301,-0.12359971770838638,0.005187495909970549,0.043350206489687564,-10.15284513521249,-7.505067668540866,-0.7839351887204296
2475323,-0.12159917023745198,0.0019864754153221084,0.08662059924044764,-13.086033102396485,-8.131362993792196,-10.229519258280883
2475345,-0.07879300957812449,0.025032959639353952,0.1178534963124698,-15.892545975265968,-6.645583445727599,-14.701196796167839
2475367,-0.018432335050859516,0.04165538138591103,0.14036919533889144,-16.599132078200476,-5.826390018915505,-13.156880141572293
2475389,0.012445066785213997,0.04372337185125592,0.15879199107221814,-15.510385556546865,-7.429651389629375,-8.020135184133496
2475411,-0.01085508647528585,0.03974172830319071,0.1762115254804256,-13.533432069902457,-9.8704478380958,-3.1791993133553786
2475433,-0.06061419526104792,0.03733305484351353,0.18956836053022344,-11.54490971440982,-9.994155076703713,-1.9879309567316226
2475455,-0.0834222651118082,0.04044245954287478,0.1906205912722771,-10.469827514443605,-7.001188476860247,-5.564399230842349
2475477,-0.05823987308504231,0.052754070867811594,0.17534652862223896,-10.678540214240133,-3.8144915307549074,-12.168701109535114
2475499,-0.017224081246544728,0.07533239819144294,0.1508219711788359,-11.246071252696522,-4.062261278939744,-18.535348287108828
2475521,-0.006087600633540111,0.10266306491829816,0.1295267739998704,-10.472395681328603,-8.118389620922057,-22.06039750633476
2475543,-0.035563948444306284,0.1246722002920261,0.1177595611953264,-7.38478578777152,-12.753071234889454,-21.874738362580196
2475565,-0.07962258407717801,0.13327202490374304,0.11230702351342042,-2.54614795462371,-14.553875628819583,-18.592729484120145
2475587,-0.11172459526904188,0.126787268594547,0.10737588491218196,2.602295613642127,-12.976032145350551,-13.796570972800126
2475609,-0.12901746855726332,0.10898782662791633,0.10105231681608613,6.879191866378336,-9.863657624539346,-9.48931494013452
2475631,-0.14197870420469047,0.08549404183249748,0.09425122109170471,9.762129111418346,-6.784927577578884,-7.127919670341
2475653,-0.15344779160188704,0.061693223916952866,0.08665826141120254,11.103302271916581,-3.6579067272195944,-6.706075675666426
2475675,-0.15530957544638024,0.042190692990522444,0.07643023226914962,10.968749257817658,0.20593226077473464,-6.914632508652729
2475697,-0.14053338578364324,0.02947309767734748,0.06300663291372063,9.759765756698977,4.604990449952184,-6.361436904651652
2475719,-0.11102330412771655,0.02247793417224843,0.048025628327911345,8.100547126390202,8.398946242022593,-4.537839945850738
2475741,-0.07495362333610325,0.01788647062945116,0.03330349668743869,6.391900428458666,10.497102520559794,-1.6572035323655567
2475763,-0.042671003599182813,0.013803949879470805,0.01943692332383646,4.586928544660557,10.458660597809043,1.829604137952268
2475785,-0.024972037499027867,0.011976254294879645,0.006828927692633217,2.493235114467517,8.436150786434562,4.970543905830378
2475807,-0.02776759768048153,0.01612007901174148,-0.0033427174969613846,0.1755744091470446,5.113850425072123,6.015101598572616
2475829,-0.04459165297674504,0.02814784609857716,-0.01015969633331512,-2.0197252581172047,1.6520325439630843,3.6164771210430575
2475851,-0.05958647157092302,0.045795702089191946,-0.013940775426702592,-3.6892843862303475,-0.8953190046171511,-1.1011131346930236
2475873,-0.06338014779671126,0.06337464047122056,-0.015053946805976342,-4.505217080499602,-2.3845158980659136,-4.500714928367971
2475895,-0.0638508480370269,0.07494787895759164,-0.012645808357045117,-4.312251958026707,-3.549311045237868,-3.6145017196695473
2475917,-0.07647915260538336,0.07786704008219239,-0.006213373537443981,-3.326516301832771,-4.948122555793912,0.5777043708342227
2475939,-0.10492173125572943,0.07387786368350001,0.0017132234759011085,-2.146015537640609,-6.099031649111843,3.919105711298672
2475961,-0.1354861130092631,0.06626374434691855,0.006300425491983611,-1.3307813027452302,-5.895702849997384,3.435719079093562
2475983,-0.15113615986362863,0.05605170742892727,0.0048981148894822945,-0.9951357264804831,-3.866535499820401,0.240299356402346
2476005,-0.14685672681001316,0.04263665777661757,2.4900737310319605e-05,-0.9610872186948929,-0.835121328241612,-2.2439971005141888
2476027,-0.12983956477164604,0.028349562775378152,-0.003149281948977927,-1.1917921677734367,1.755338821495545,-2.0468146699565994
2476049,-0.1091829346376477,0.019957431694186907,-0.0020871059800762976,-1.8163696513114522,3.1050805326972757,0.19729167698967814
2476071,-0.09002757509828786,0.023821605098489667,0.001030465728815707,-2.7704962466195227,3.616718535938653,3.08822898962252
2476093,-0.0761765229388358,0.04017012276250906,0.002393459889621165,-3.6749460333941744,4.294420408198063,5.956043868650847
2476115,-0.07285307941540814,0.06275590092637723,0.0010444190304012087,-4.1091701905433125,5.662479008515362,8.33906238820396
2476137,-0.08334535987164376,0.08304284188179156,-0.000115462050667133,-3.8271854561251764,7.237282841544011,9.219090475243032
2476159,-0.10351807448243663,0.09377453798300096,0.0023600628382472516,-2.7313016701049917,8.029966446544943,7.76754546302312
2476181,-0.12234521609361818,0.09048118289486357,0.00838090885005103,-0.9510239536232922,7.604313312393616,4.689961552748754
2476203,-0.12999236683711038,0.07371072965446614,0.013532054657166842,0.8941161570534512,6.633434710664132,2.1591223648905853
2476225,-0.12551326155128126,0.051381905404716835,0.012380977910753778,1.8026750727201146,6.3260138193347,2.0338696981637647
2476247,-0.11580282053663524,0.03578064561173782,0.0029569192209955597,1.1576127646807781,7.248681345332654,4.146522430552616
2476269,-0.10741586327465123,0.034593478942805844,-0.0115116631025765,-0.5531491794547474,8.723383638879971,6.424819435162539
2476291,-0.10084416313072199,0.04495342477485522,-0.02504819261220382,-1.9775568973972484,9.382935135160226,6.6374405712106395
2476313,-0.09282493482089071,0.05805836837224418,-0.033471025054754557,-2.023940248786102,8.340563881590166,4.000363049511916
2476335,-0.08221085129826122,0.06907265066544009,-0.03738237452558016,-0.8246486720588891,5.946236606989004,-0.5582842562022917
