timestamp,ax,ay,az,gx,gy,gz
2544579,-0.01443285425308733,-0.007532046196419086,0.016290482503096292,-4.692289802604103,-1.1506188378462328,-0.257708168001989
2544601,-0.0063036207372751075,0.009202101668511844,0.006153165017072079,-2.0267243948981983,-0.35880681102165146,0.4604012240741026
2544623,0.003643697796203885,0.013132904241974205,-0.0026835574485053787,0.12921338094313187,0.09159002338617428,0.12237859166575873
2544645,0.012663542036128713,0.001811866923364546,-0.00750527780374036,1.288445260989374,0.055607595354899876,-1.1376469479292803
2544667,0.014925403039770045,-0.014484006498016082,-0.006283219605161425,1.2313015977971509,-0.30927043243119723,-2.0915592192562693
2544689,0.007887683239518781,-0.021069761478470995,-0.000956638005680254,0.34183867764453024,-0.6150792279098244,-1.6780825712870382
2544711,-0.0034896637373620226,-0.01167052857303817,0.003059906840749863,-0.41398179658726764,-0.49402735255982233,-0.11279702653258879
2544733,-0.009756803898458247,0.0058218729792692105,0.001418138698650093,-0.11894440138869325,0.13816091816937137,1.2791999655032553
2544755,-0.004870736261158543,0.016465237518688502,-0.005367898016116421,1.2921599075559538,1.0159437509059188,1.3477850048669904
2544777,0.008331124876682364,0.011425580041942959,-0.012539200806417924,2.8905403066338833,1.7064301090399974,0.2255458033591912
2544799,0.020409491692282223,-0.00529041866615299,-0.015064368543984422,3.542087618361203,1.8974816282126763,-0.8816721961838029
2544821,0.023533452626042707,-0.021680669954052236,-0.011348020572049181,2.89466720814133,1.5776467930730558,-0.9692358421683415
2544843,0.01790603957480645,-0.028102475443294042,-0.00400205650030645,1.6001161719468668,0.9834751588413839,-0.16891470293327876
2544865,0.010345726490503132,-0.023462645546827445,0.002422333288843946,0.6316188521516163,0.3958167807309512,0.6136445596820872
2544887,0.007117163980866626,-0.013388772702817955,0.0046879088901543645,0.46810749339115804,-0.0035485813550248796,0.8031484129680758
2544909,0.008806649530459693,-0.004503696561314529,0.002764509124509244,0.923795711496037,-0.13745718546112656,0.67939616179067
2544931,0.011797637303291827,-0.0007606720640177581,-0.000602511042135215,1.5843955889213788,-0.029403297332993246,0.8191638138263376
2544953,0.013077998592319106,-0.002926596978127147,-0.0021193562887896296,2.1853934547204026,0.15015856369767663,1.2643354917279082
2544975,0.01241911917040365,-0.008481166437339609,-0.0005616588589001747,2.575754690436882,0.14433432889630768,1.462023004839049
2544997,0.010857730173017157,-0.011585968281299224,0.0020562438050655825,2.6289381963255414,-0.1346675526272272,1.0084327207211956
2545019,0.009244987863719994,-0.006220829609154831,0.002060680141626114,2.475844568112861,-0.39893606565759676,0.25398231637626945
2545041,0.008936648953711516,0.007492836993293649,-0.002393120579180066,2.7078268021862417,-0.1650989862215076,0.008209408300271254
2545063,0.012188268809954805,0.020543085089059335,-0.00914635152790337,3.9285998120235406,0.7185328889462131,0.6206857608835914
2545085,0.019894878017174503,0.021949252169295913,-0.014106753247825806,5.847002122802138,1.7038582701681062,1.4099441937335713
2545107,0.028993661366161553,0.010573259802858241,-0.016518256035069363,7.01247727613517,1.833588765580857,1.0892985957312442
2545129,0.0340485930711513,-0.00146348399913813,-0.02207811369452514,5.966530520395712,0.5839360537081966,-1.0561432388094545
2545151,0.0328542619410431,-0.0004952905517041539,-0.03916197169215211,3.044330336556759,-1.5393721276604106,-4.1538909959266945
2545173,0.029501460920835366,0.011999906134122034,-0.07008105576429052,0.8453448655169647,-3.4197110623707903,-5.899696478913072
2545195,0.029907772900488953,0.0164263510061917,-0.10594632160491933,2.1729721196754888,-4.520491873388828,-4.240108730867451
2545217,0.034464000242848104,-0.007391164757827578,-0.1320246210961327,6.927901078225675,-5.592156823676425,0.5337507403819437
2545239,0.037144659388426836,-0.057738489398802786,-0.13987539936193316,11.345856274129865,-8.005691610842867,5.496522963054384
2545261,0.032099292017686396,-0.10773813520620831,-0.13400395100343332,11.160254101080016,-12.354935356117675,7.54963697240847
2545283,0.018902886939542847,-0.12732341567440847,-0.12564265013255196,5.8353792081994715,-17.73818459006198,6.416719575086924
2545305,0.0008876268954495486,-0.10917973754791985,-0.12064881507662566,-0.7694538899155858,-22.21895329181841,4.7704283127431815
2545327,-0.018733600015001965,-0.07255918370436222,-0.11513614424969175,-4.154227225888666,-23.839878513520322,5.208138109845893
2545349,-0.03752014183208624,-0.04344443131786364,-0.10250068791865521,-3.14803246501797,-21.57679586599753,7.736727691151982
2545371,-0.05381072331589386,-0.03400055243936428,-0.08165871557520125,0.03504258160304585,-15.965724662605908,10.802319157383705
2545393,-0.06919379426193752,-0.0401446823991537,-0.05679989522221083,2.859353331759699,-8.886126359966047,14.087253055917257
2545415,-0.08785324156839437,-0.05230277937802144,-0.032098100185818046,4.573146024747605,-2.2070674024323966,18.796501097874103
2545437,-0.10803015272064227,-0.06318203087654209,-0.010587117911167142,5.431364564614783,3.5580237818505007,24.845267007532197
2545459,-0.11629796960364212,-0.06822323330838569,0.003361975450877545,5.111990735673644,8.866779597180091,29.24546110530704
2545481,-0.09911519881717352,-0.0657464922141858,0.0060848014161738965,2.829160966694376,13.379408994707301,28.70746491160717
2545503,-0.062327855280345824,-0.057725785813383064,0.00048566411665100625,-1.3234998678156134,15.374559385515713,23.45024850385243
2545525,-0.030525228117241787,-0.046266726693594044,-0.004704104703390903,-5.927792914092767,13.625676550508972,17.174332418612593
2545547,-0.02052957236423132,-0.030523626555296095,-0.0042416381698625345,-9.21497029062438,9.440657950967916,13.187383481156484
2545569,-0.021087172410257354,-0.01318017349607418,-0.0019024774872793925,-10.17028587402837,5.791796438487845,11.601595026609203
2545591,-0.007248609246169897,-0.0078009257171660126,-0.004018827153017751,-9.003093094622722,4.073840141708228,10.621723023479344
2545613,0.026896057347057304,-0.027661840937224,-0.010286504142462542,-7.24850438312389,2.408096874852442,9.465820461786475
2545635,0.058136347360393796,-0.06268387844104843,-0.014533673779676156,-7.230735154307264,-2.150460265304674,9.070819711107568
2545657,0.05851492122154601,-0.07927680257312487,-0.01273434973740602,-10.35744836887242,-9.940475521149416,10.345183574006343
2545679,0.023758598384109906,-0.05442452050150117,-0.00619244232443934,-15.50449382163887,-17.895427084967952,12.631705762893416
2545701,-0.02560835473042247,-0.004778716942109216,0.0026926401602088246,-19.761568676071757,-22.46187408916111,14.105266908612387
2545723,-0.0667406935858054,0.02906155663020868,0.013881765745263066,-21.284721273779525,-22.69454160251973,13.441427441828415
2545745,-0.09279906746410788,0.027021452430337475,0.02745355631614662,-21.036115057778467,-20.200354499025487,10.974207363455882
2545767,-0.10994323714164378,0.010735480987921625,0.03981091691058461,-21.308185624321975,-16.690902182110218,8.122599783218368
2545789,-0.12177356018607674,0.017879635377288743,0.044517682084805735,-22.8454347717795,-12.462039746748989,5.633137795397593
2545811,-0.12196205673693254,0.05950429901878393,0.03832811904677958,-23.975083834307828,-7.344582897742492,2.7330477562329514
2545833,-0.10365994904978293,0.10795395436716158,0.026242183255839224,-22.621351366419926,-2.321128451024171,-1.5392536769768497
2545855,-0.07274973585175876,0.12797014720398395,0.01887141266809544,-18.708285607301512,0.6573557870649758,-6.379482666621608
2545877,-0.046478233496828794,0.11416853893368077,0.023465518660852436,-14.226258515294486,0.5381616260111213,-9.346096039029565
2545899,-0.037592573960603594,0.09228711006094187,0.0379451093348342,-11.170622023721227,-1.703055932123171,-8.782620979684712
2545921,-0.04346137757803444,0.08760173003530626,0.05424459270332472,-9.890196802630031,-4.104430330646568,-5.689062280250948
2545943,-0.05270796930325263,0.10135703684229105,0.06638532467987039,-9.387329283419252,-5.529831735557129,-2.7397065149322106
2545965,-0.05822215115972431,0.11831190587852383,0.07403973674382865,-8.582581113081268,-6.06601447563425,-1.6441017148580723
2545987,-0.05977599631638956,0.127237081787905,0.07928689542114792,-6.942209314122147,-6.020013201356442,-1.917640407873521
2546009,-0.058081831102424875,0.1279370321404684,0.08263792999769781,-4.359128360764096,-5.354971127102411,-2.1180552524583094
2546031,-0.05368307950108069,0.12403175477885756,0.08340712125209696,-1.1081230886855222,-4.2441198376381735,-1.6271865780189139
2546053,-0.051659566575894704,0.11753515729534182,0.08219615309786185,2.0420145328997736,-3.372039942159408,-0.9071670614502225
2546075,-0.0603125090353313,0.11095274017895243,0.08063372624465082,4.158128760342256,-3.0619228217071033,-0.47116124099387313
2546097,-0.08136633965503451,0.10869752799615408,0.07846629815631531,4.869263594805333,-2.475042611029643,-0.18777065074193147
2546119,-0.1049075896596464,0.11294851614230768,0.07259021492770906,4.665030466913219,-0.36382144964556856,0.419162266832489
2546141,-0.11765597434769132,0.11997982871649132,0.05997251718988713,4.391261368494205,3.3649758564893752,1.5660865443979932
2546163,-0.11473518150584679,0.12321110078675282,0.040683170407759275,4.547984479730662,7.286801576837948,2.9605975812959886
2546185,-0.10084843360801318,0.11954302941819125,0.017166973540580065,5.089749563327794,9.729637793999405,3.869985432447358
2546207,-0.08218168664367627,0.11114296254053663,-0.00835166253654044,5.694214237353768,10.07753291792726,3.420471610100896
2546229,-0.06176392710803301,0.1017421474226003,-0.03391977634631147,6.0329192474209234,8.787560255562495,1.2746997669409392
2546251,-0.04256187653993116,0.0933929872399765,-0.05579627788891021,5.872489272432142,6.615227014022524,-1.657156572642904
2546273,-0.02972637084310899,0.08666754366017093,-0.0688196123502472,5.166241079353323,4.193766650555636,-3.4523160070430556
2546295,-0.026646344785854866,0.08154253379621985,-0.07014275019226496,4.131763082844403,2.081321780942776,-2.6615717008231092
2546317,-0.031108136963512292,0.07729650573022456,-0.06190256017333517,3.101354837518256,0.651472745194024,0.2254773927664689
2546339,-0.037760193454552594,0.07310560349051115,-0.04955025546986559,2.1942563559567074,-0.20613475157611524,2.965874345531503
2546361,-0.04329562256216302,0.06945349737951302,-0.037771517873416885,1.1880225166289764,-0.9955953945274626,3.437678158677166
2546383,-0.04801556231650754,0.06807089926293709,-0.02799810278593812,-0.23060610839185752,-2.049081372823927,1.4642104913278482
2546405,-0.05353353781416375,0.07047331258188166,-0.019351942937942086,-2.105750119409489,-3.1321235997600816,-1.1399899066820833
2546427,-0.06010844833179988,0.07783125960262868,-0.011669363589865677,-4.0766042379009555,-3.6684188279629195,-2.2593485660383217
2546449,-0.06554058745519749,0.09218470284509525,-0.007346025123185246,-5.501970909923836,-3.29169185869278,-1.220666183741266
2546471,-0.06623060158589306,0.1151832674199423,-0.009589150026881224,-5.728752389217865,-2.178245029676295,0.9143575289041321
2546493,-0.06045810347431121,0.14310242054811886,-0.01832455922442685,-4.45117393904593,-0.9508550304935365,2.43557915505563
2546515,-0.05149533639696619,0.16364273097632215,-0.028108141029520688,-2.022749047302295,-0.3073141770439465,2.2617899595932602
2546537,-0.04660389976785978,0.16099549328195,-0.031004791168169746,0.6271737127077716,-0.6484043813503567,0.42680515162219246
2546559,-0.05135470828213866,0.12749348095527113,-0.02250924685424798,2.636550770959455,-1.9249376885934657,-2.3544149653228508
2546581,-0.06420393205211168,0.07195267068087682,-0.005430780354501643,3.929359392522595,-3.73890323968968,-5.437642276854162
