timestamp,ax,ay,az,gx,gy,gz
2488391,-0.0014941336690872642,-0.005889262736891708,-0.0032177845222364715,-1.8367228768454833,-0.7327375120772177,-1.6249282114762476
2488413,0.00286967075804067,-0.0015127665162904674,-0.003236318840621259,-1.6634860159472207,-0.6508141931172686,-1.6240624416028193
2488435,0.003290321826995775,-0.0010153130635841934,-0.0014803143471403485,-1.6782173349589897,-0.6738989829645493,-1.275512277261123
2488457,-0.0007542007071570764,-0.002110696358477153,0.001925031301746095,-1.8236997801369046,-0.700276814200992,-0.6004413184260817
2488479,-0.005850988726121124,0.0003463945176771016,0.004985693795388741,-1.7184302281635875,-0.49416006194080786,0.06848771815452813
2488501,-0.007498210754870461,0.006301204414160569,0.005644286984647012,-0.9187489038639612,0.030614184119657287,0.4686906446544292
2488523,-0.004056232944547509,0.009468059790914056,0.003554799389638179,0.6035348592615835,0.645470438640879,0.6583657633731557
2488545,0.0016018724164770595,0.004997367795896558,0.00022219622997273207,2.272476051576145,0.9759690594251456,0.9055733861899692
2488567,0.0045827587428458345,-0.004403236825793544,-0.0024820350848759926,3.3137968669644353,0.8513212782741311,1.3908754360490139
2488589,0.002612597870891907,-0.011524622334030496,-0.003929584476408546,3.3814612771620047,0.4566250555760851,2.0153599244457934
2488611,-0.0018200116992512212,-0.012495815488289165,-0.0048979595115370145,2.752176452071722,0.10027818940984086,2.4483410109939077
2488633,-0.004336543315312368,-0.009880867867353687,-0.006174935893725705,1.9452959893937867,-0.1453897660735411,2.368631913574441
2488655,-0.003609779445356599,-0.00836261078320448,-0.0072047753779122614,1.2616962647744143,-0.4904150917470016,1.7428359387958663
2488677,-0.0027293299669075123,-0.009223206289629124,-0.006545150206408194,0.7192882614066939,-1.0871109660651403,0.9292315057097236
2488699,-0.0053088890576077526,-0.010073545848883389,-0.0039047435806658804,0.3031089503533233,-1.7268203622063798,0.46785604683295484
2488721,-0.011028826316952508,-0.008956549486997685,-0.0012971911930341287,0.10252306962551233,-1.9779304680757304,0.6620197432570549
2488743,-0.015937450557026115,-0.006911995941129261,-0.0014297799407811448,0.16941109281210956,-1.6391803853525022,1.292143839845263
2488765,-0.0168276991346268,-0.006090723334826761,-0.0047946728221504595,0.3666768656641325,-0.9927469045194384,1.7564115780808496
2488787,-0.014342228701341856,-0.006687595903154534,-0.008958049489396502,0.4599837944057894,-0.5446039088391542,1.5636054217863231
2488809,-0.011643562486161635,-0.006922745762884331,-0.011277812414277907,0.29095570838770396,-0.49792461507223884,0.7129850812539325
2488831,-0.010822718011403375,-0.005271939022324249,-0.01220696782557627,-0.26747828833918247,-0.5341456579583341,-0.46509478178844627
2488853,-0.011281691477742432,-0.0010087232859846585,-0.015536929412635868,-1.4363150767211708,-0.19307085336180363,-1.832506739442428
2488875,-0.011697008616853554,0.00722103052454281,-0.025530487045909454,-3.273454500015609,0.5730501079283578,-3.614132864385963
2488897,-0.012866632569479773,0.02057026765686549,-0.04433551133091528,-5.111304076847793,1.4403000453245656,-5.890709332290529
2488919,-0.01673686947848489,0.03529160503653304,-0.0720077789855102,-5.592485821192516,2.406921018060578,-8.116197229155413
2488941,-0.020918233086320834,0.03986379854399317,-0.10762870409891127,-3.8689550244572355,4.0994950285566985,-9.503281367556388
2488963,-0.016255654717749948,0.021067033904420752,-0.14855609794352279,-0.9622873943824793,6.8287667662757245,-9.894157090284203
2488985,0.0044138708479740645,-0.02308879338885986,-0.18769298078424387,0.4677798417193311,9.275477017329253,-9.876848944968819
2489007,0.0325425726904665,-0.07560482365641297,-0.21284825683161226,-1.8388031707662358,8.82610408308358,-9.878266698180362
2489029,0.04435710240619183,-0.10725680541925013,-0.21251126956303085,-7.799594735524999,4.071340253632679,-9.468978971145885
2489051,0.023283843308360634,-0.09478975876070055,-0.18561374418462284,-14.916390715501063,-2.9370843588826636,-7.880844836259865
2489073,-0.0167859669258913,-0.03903023512383874,-0.14509951599400944,-19.83267422472363,-7.730785388788387,-5.016262970165487
2489095,-0.038272442675270864,0.029839600921649376,-0.10858476132464145,-20.233492633499058,-7.56030261116402,-1.5947674336396904
2489117,-0.017073341719003887,0.06922687989648074,-0.08426545792384851,-16.282479667606633,-4.44249498368159,1.4800248905868711
2489139,0.02953313715890947,0.057170711946060764,-0.06758927806648818,-10.913349931224754,-3.4019347887300246,3.341076841838079
2489161,0.058889661265421826,0.012709954663949356,-0.05123672682533665,-8.157321282674141,-7.448539445742568,2.958256808839604
2489183,0.04576637333096656,-0.02130957973945691,-0.03422534064476307,-10.156137665401227,-14.742902030602616,-0.17121297904885008
2489205,0.002270593915485666,-0.01765605209923306,-0.019462733170671632,-15.480460992980522,-20.80441107815015,-4.5805230302655175
2489227,-0.04368325118390871,0.016268833395259495,-0.006893926312616298,-20.539551345303096,-22.71459800248316,-7.041903876614521
2489249,-0.0779441737218446,0.05670205980448897,0.005652706294142071,-22.532615710532248,-20.569168082064994,-5.510317577729666
2489271,-0.10144272875291709,0.09032780032090533,0.01610376342639897,-20.845924569959053,-15.621758620033702,-1.8117699126631097
2489293,-0.1113193791410313,0.11538381160618394,0.018467889693778543,-16.170554061715077,-8.6608157342748,-0.29981496205333197
2489315,-0.09595996515672238,0.12371944847925584,0.011396350721217724,-9.581193887117816,-0.9067524941827608,-3.3699637363392987
2489337,-0.05270724116725448,0.10082962984904585,0.0019850380772444133,-3.067835584854052,4.640083422237133,-8.906730415604155
2489359,-0.001537506432248605,0.05256795394197334,-0.0023949365860069195,0.26141032826192995,4.550689792935037,-12.53547101902296
2489381,0.02748653033971188,0.01706554182898244,-0.0031093277833121134,-1.6464243096620372,-1.69550110596472,-11.801844922207266
2489403,0.02054467212991833,0.03085229603182629,-0.006923854698448695,-7.0970497034675635,-10.434100643395562,-7.677151472278961
2489425,-0.009038668772524423,0.08515295441947539,-0.015071524141000723,-11.354667061703292,-16.601630647152504,-2.6664878426845267
2489447,-0.0355516124561559,0.1311745794843622,-0.020057703481029608,-10.896336069169053,-17.853889748837727,1.5048776187587407
2489469,-0.04442565003893314,0.1315362897336629,-0.013974430601393662,-6.649221305072508,-15.931807851577586,4.383495435993419
2489491,-0.0421105216713849,0.09594399970879947,0.0030333140761429713,-2.648855080414915,-14.3794926660681,6.067130176632264
2489513,-0.04608901529315521,0.06346341117861184,0.023614289854801,-1.9544475920707096,-15.26979089404163,6.7721685469870305
2489535,-0.06729292360155258,0.060613292852216866,0.04009971854878851,-4.34732996864753,-17.888188207831643,6.9296620127922495
2489557,-0.10139243054815525,0.08335450063684716,0.04911196495992296,-7.490502374573994,-19.89782275036942,7.16031027822812
2489579,-0.13404195753202836,0.11143355328164588,0.051153593614192076,-9.367486200164487,-19.37089426651933,7.8755048547484385
2489601,-0.1516345093068328,0.12998781057789568,0.04777817675570022,-9.514857769422939,-16.020893532352133,8.855500895566994
2489623,-0.14796299616540834,0.13868544055105406,0.03956731566207109,-8.648363633459642,-11.152402098953896,9.326543495817443
2489645,-0.12578378941318077,0.14636490873395983,0.027068089318851084,-7.559781077294051,-6.717606696429518,8.71607531562757
2489667,-0.09575832921847983,0.15809425765046653,0.0139115214277972,-6.291391872051246,-4.155763203412429,7.366458859706964
2489689,-0.07175038335282063,0.16697663211844296,0.007370681863806452,-4.3620846949322925,-3.731835061497259,6.1911196003096585
2489711,-0.0628940778383728,0.16131452201132734,0.013231153323973004,-1.8386478555035086,-4.743108112654357,5.60961953732017
2489733,-0.06914132578292403,0.14069295613507227,0.029669392128086378,0.16492229086953966,-6.234319709479601,5.258293288793481
2489755,-0.08501835639682079,0.12048253890533839,0.047950749288000534,0.48216231551965905,-7.491144909955988,4.799227741155368
2489777,-0.1062086772117101,0.11727220349220724,0.05988307581093047,-0.7285614081615089,-8.031341912637686,4.441070520143593
2489799,-0.1306445938935103,0.13272791262567743,0.0634938393866164,-2.0110944213370265,-7.444807481282335,4.4250278018527265
2489821,-0.15445302639632105,0.15444282639208476,0.06149935189268841,-2.017597918263021,-5.463258967534248,4.507067457191654
2489843,-0.17052629154399723,0.16949985239357426,0.05661598073321877,-0.5907346100678176,-2.2291493859605658,4.3108526615590765
2489865,-0.17358023036018835,0.17354852370886242,0.04981119323021449,1.4897834126870928,1.5555801549435775,3.846788085077872
2489887,-0.16557363980766332,0.16905027653542015,0.04139466824081874,3.4187214994486497,4.898743818553469,3.3486160080735003
2489909,-0.15333726265242958,0.15998026181524,0.031472817874786105,4.8837070939408145,7.117246118132794,2.919646036567263
2489931,-0.14094513942406361,0.14931258573680223,0.01963971593646187,5.976266022479733,8.1672584067234,2.7732583386032186
2489953,-0.12766232586926513,0.1385186185908047,0.006145165618281797,6.841762634976868,8.275380828585526,3.620780627868967
2489975,-0.11398667846264557,0.12767776256450306,-0.006427187631453929,7.348935833066092,7.370442463707979,6.293399757022113
2489997,-0.10559711025869185,0.1172260586806823,-0.014475928145454023,7.006599021293578,5.169009534050317,10.862079785306223
2490019,-0.10825589118540518,0.11016228456583253,-0.017292489923196996,5.355457155024493,1.865482166981254,16.298426112014265
2490041,-0.12029879734218751,0.11071242325657606,-0.01831621626708824,2.640690410387798,-1.489522411179299,20.929645085243767
2490063,-0.13250497245385706,0.11949677911558067,-0.021218458763981672,0.02687654441065357,-3.47765342995358,23.15275829697705
2490085,-0.1353145002571279,0.13136546775788882,-0.02550994678427416,-1.1196223897569717,-3.265587211301722,22.07281952312661
2490107,-0.12557151495416088,0.13958642951517963,-0.027113690779389767,-0.3097055308428493,-1.2228104848017498,17.913213122078904
2490129,-0.10749793192580431,0.14152062045596794,-0.022590926683883766,1.7270241902185033,1.2551035899946044,11.930174236212345
2490151,-0.08955276029523752,0.13933964379994668,-0.011950483973781534,3.7449155209134672,2.5927709060155624,5.843791929502711
2490173,-0.08108810932365154,0.13654398963900388,0.0014103759034697165,4.905138708828412,2.021483261934082,1.1147646206600321
2490195,-0.08930321587769993,0.13526976444566338,0.011715261168432025,5.071366362971477,0.10443828642746011,-1.7490884020207718
2490217,-0.1153525097143584,0.13570893586235708,0.012555362352186728,4.550564922073015,-1.5690916677471698,-3.581514712567355
2490239,-0.15185308422933486,0.13573504501378583,0.0005091395404583957,3.8234022707659703,-1.3972070824290626,-5.962625860585272
2490261,-0.18557690210977576,0.13117578243685055,-0.021382895902709784,3.388988191005317,1.1853771470330556,-9.580753764241138
2490283,-0.20443475571683833,0.11877380425290315,-0.044715771953194754,3.5071708663988663,5.390283367276909,-13.07977222777274
2490305,-0.20316917023903622,0.0999573864174112,-0.06178163065834017,3.9477835075031855,9.672711649395913,-14.03254284668854
2490327,-0.18380513977782575,0.08053643357177254,-0.07080200598522184,4.128255207753272,12.688477349409084,-11.323411359351025
2490349,-0.1521706997643134,0.06585563489597764,-0.07520779088051024,3.599772689316515,13.88930892637683,-6.269594323063723
2490371,-0.11417239349396191,0.05694853701739222,-0.07895456449765026,2.357187832075506,13.51198296352864,-1.1452503546848698
2490393,-0.07388338687761353,0.05136610773204844,-0.0834347342399354,0.7132746269428548,12.250434799556537,3.12913088771567
