timestamp,ax,ay,az,gx,gy,gz
2460275,-0.0018032860874456539,0.0020960428369524164,0.00582049501930686,-0.13520154387331187,0.484839863133092,0.7267364068353135
2460297,0.0023947647345857193,0.005855072489600629,-0.0020403821428602842,0.3116877405055097,0.814600651585093,0.39684528237916117
2460319,0.0060222527568558415,0.0068765630037032,-0.007759291132978627,0.6005520873319932,0.797219490700489,0.0267266801385584
2460341,0.007566117119529784,0.004692499070531435,-0.00977677957953057,0.5775111504260425,0.339686944622185,-0.3461455860075034
2460363,0.005690366188216309,0.0011084140195502788,-0.007921452687054931,0.2235468681396525,-0.3206022327091422,-0.6055881135395486
2460385,0.0011087839700475012,-0.0019692590843525706,-0.0035475955842168257,-0.25331754104185367,-0.7969837096101301,-0.6484350792624448
2460407,-0.0035687056065567355,-0.004070367128795061,0.0014917617564150767,-0.5596658700168587,-0.8612493291361027,-0.46944620609954474
2460429,-0.006056617133494321,-0.005127249432191041,0.005834936357359532,-0.5541495340891539,-0.5859423003221941,-0.11717557091018568
2460451,-0.005967114650035362,-0.003974890322180208,0.00842808133631211,-0.28916112016690004,-0.18976082503681208,0.4107106461018212
2460473,-0.004204443920743439,0.0004607062538632866,0.008014441100025655,0.15039670477284706,0.18807930456090524,1.1309805899452636
2460495,-0.001637515089793058,0.0064817296555032535,0.0037966480665530154,0.731142518315071,0.49199161361918,1.9134344666990983
2460517,0.0010899412634064153,0.009816134364001963,-0.003139927305985279,1.341655582138796,0.5905206042776793,2.476216698709385
2460539,0.0029993933330786037,0.0075833821259399395,-0.00974664072375915,1.6755870366236607,0.2807567063342233,2.6401779898894335
2460561,0.003034627661080794,0.0014657743787755623,-0.013134650551681892,1.3957297770360702,-0.44717103402153385,2.5400614390101226
2460583,0.0011281759967777703,-0.004054029735885792,-0.012878317317578275,0.47193618151905437,-1.23040052777095,2.4910040963749567
2460605,-0.0016184491077342895,-0.006519657674266731,-0.010869375328964377,-0.7077295027109466,-1.5822641829633417,2.618598523085976
2460627,-0.004256203361152947,-0.007509766814868827,-0.009021299930217344,-1.6449581995752607,-1.3725175689082119,2.6243153627241953
2460649,-0.0069769549228134746,-0.00912162740654617,-0.007898594548568895,-2.17344259875741,-0.9580568728700378,1.9457262761407357
2460671,-0.010066514104488455,-0.009294295189527046,-0.007996353222815727,-2.580359864476518,-0.74041030361396,0.2807789159872776
2460693,-0.012237116218517535,-0.0027432100979527885,-0.011336978626465788,-3.278889550257323,-0.6361516605579244,-1.8753670178928288
2460715,-0.011288785384941503,0.012064650820443154,-0.019975790674380486,-4.345738956525765,-0.11726364148975464,-3.2350144450724265
2460737,-0.006908505829913629,0.02796439082718415,-0.03253701707021983,-5.350176758722649,1.14453496540625,-2.5619398332444576
2460759,-0.0015545902890838077,0.03399158869641975,-0.04429864282251989,-5.645457214027895,2.700954282611492,0.12451471222271945
2460781,0.0027093990097580016,0.027003717970464913,-0.05265177399572319,-4.9120345255324125,3.447253394854835,3.10194439235697
2460803,0.007292387162817043,0.01692739930572988,-0.06124176417387209,-3.4617571180383964,2.3700119144830856,4.026755775148916
2460825,0.014878503023035582,0.01713605330387826,-0.07598365550975493,-1.9053960483972912,-0.6758198696170055,1.975230726771916
2460847,0.024028036845042382,0.028437921303406805,-0.09688394997334766,-0.4398528044931307,-4.732393977568323,-1.375748455580187
2460869,0.027985347845838258,0.03505499034836464,-0.11604389804932062,1.323038003269697,-8.280728220500887,-2.966906024222839
2460891,0.02041324494471939,0.019755873423591048,-0.12462894480968416,3.49375873629964,-10.266842328644499,-1.3392505873557052
2460913,0.002429841572700503,-0.016288718518602606,-0.12083022049031512,4.980254748199479,-10.81073431815405,1.5113093092056296
2460935,-0.01658577361555215,-0.05088170597815405,-0.11073644736139285,4.021404324276455,-10.955006701115632,1.8045159497868737
2460957,-0.026480610594026396,-0.06057293303514551,-0.10220833917028155,0.04088789503419549,-11.720974163610984,-2.0198605657433455
2460979,-0.026606431302008758,-0.04354173300226296,-0.09767275921492401,-5.287742295501967,-13.353692435625168,-7.130214375263508
2461001,-0.028895317703218258,-0.021517751515479126,-0.0919485947182114,-9.304908507491641,-15.211889224330768,-8.68233742486416
2461023,-0.047218803780473884,-0.018175144106875863,-0.07780578575601477,-10.838546715499632,-16.0702389135625,-4.7042405438519665
2461045,-0.07991430098841282,-0.0354135036091711,-0.05519210577916137,-11.289332322275282,-14.694289656424743,1.512032630867104
2461067,-0.1050087905257511,-0.050472873381798636,-0.03418668026956474,-13.092555466848566,-10.830020899893567,4.301720578145545
2461089,-0.09947019286561445,-0.03728582186994694,-0.026336484427930816,-16.964514380587218,-5.998638725308521,1.2100962039552974
2461111,-0.06519660442066022,0.006660290168832574,-0.03271596882095345,-20.733947402198684,-2.7052701346022743,-4.4560918082805046
2461133,-0.030799874395219393,0.05402426681071932,-0.04254541614359756,-21.262972395797654,-2.0934148446902836,-7.0062463044537
2461155,-0.024670381444752015,0.07132204759966915,-0.04425627902647035,-17.74358427522779,-2.594886283299066,-4.232874158611596
2461177,-0.04987903318026227,0.05184252545313883,-0.03641443550406805,-12.784778166398148,-1.6100510761873474,0.46070782488656226
2461199,-0.0865223346394465,0.024094977990010404,-0.027395913838119318,-9.879543170139343,1.6326046098644518,1.6856168977287918
2461221,-0.111181144580357,0.02514277017319095,-0.026353621417049982,-9.948411558417076,5.644806530760734,-2.6923449251346976
2461243,-0.109439554113083,0.06418054403345572,-0.03546924148045946,-10.667802016768782,8.798710904517137,-9.850233967854622
2461265,-0.07840558208854208,0.11158604994452577,-0.048583982131251494,-9.061305988794304,10.514524242979002,-14.780620846924226
2461287,-0.029662890956229402,0.12432757983012493,-0.05486870077934045,-4.498365356739462,9.989480057883402,-14.490129225565466
2461309,0.010633315472274292,0.08552669881949505,-0.04533228401577572,0.7079108862859717,5.334972818980755,-10.116633658757458
2461331,0.01617374944119758,0.021660084606214023,-0.019372107227124118,3.383289024751959,-4.318005099721705,-5.578951381008196
2461353,-0.017105699779847133,-0.021299160003158703,0.013707652906205634,2.233530923109631,-16.03959871646451,-4.081234598740917
2461375,-0.06448304315105806,-0.020895323116001698,0.04061731792745917,-1.2473263252154059,-24.09553875816454,-5.483394971444129
2461397,-0.09298003487454097,0.004982108883944706,0.05264081309341895,-4.497182195939814,-24.918186664048363,-6.839431619954526
2461419,-0.09095153268384903,0.024933265125853043,0.04970177065933027,-6.372276508070853,-20.811671002771263,-5.516608963760922
2461441,-0.07752280185576538,0.03072633336240778,0.0378937734210774,-7.704057166635409,-17.80982490925728,-1.8576944709158032
2461463,-0.08238770814424747,0.040514509578731026,0.024065467815218414,-9.570189201618922,-19.623248512604807,1.1378237090789647
2461485,-0.11642821989042211,0.06936089727148423,0.012239946743947712,-11.665071883091423,-24.1545728217394,0.7255676799914925
2461507,-0.16229942576470754,0.1062079644439139,0.0037689609639962934,-12.721731540637931,-26.138909023467694,-2.855259997433247
2461529,-0.19255872414696967,0.12384274147788811,-0.0007263247712570874,-12.145339212874639,-22.747966950858014,-6.41989023305775
2461551,-0.19497873145523736,0.10825983712366354,-0.00036937176174848814,-10.70401373661553,-16.189410817116997,-6.744240187704725
2461573,-0.1798300752827626,0.07416204208669652,0.005656802497399052,-9.598292939112024,-10.961361561936753,-3.699169941661608
2461595,-0.16464101756262955,0.050060085403855814,0.01726625823950482,-9.22685566337743,-9.080308951660719,-0.48271483702722034
2461617,-0.15492140015007047,0.04992194478882275,0.032033362951545616,-9.131552261511514,-8.446432807934778,-0.45201400845546225
2461639,-0.1418101989893378,0.06387272291416857,0.044330521502851536,-8.96627251949527,-5.88089454318912,-3.521641882893143
2461661,-0.11790206037410926,0.07695711351401677,0.04814471317586585,-9.010641826430815,-1.2000292907932526,-5.865574017358073
2461683,-0.09142432006196508,0.08891053976612247,0.04315011781228706,-9.547020516990408,2.3288494386264733,-3.689395668516133
2461705,-0.0803271547871916,0.1094357723909874,0.037160377400093425,-10.150369305007512,1.5384291076807375,2.315438124072967
2461727,-0.09174636893003119,0.13939110018917997,0.03989729667085949,-9.924450069344346,-3.204896297519516,6.614872559182282
2461749,-0.11157920575029714,0.164030468570036,0.05379894650959689,-8.233399053345503,-8.382808945631217,3.886459668374493
2461771,-0.11895758443614737,0.16431553819396472,0.0721404084564157,-5.128674557024329,-10.76687278308973,-5.084966132707934
2461793,-0.11023320535238593,0.13398861879755367,0.08537487903993997,-1.5191334170960569,-10.065836034792936,-13.194042048583627
2461815,-0.10365495050559725,0.08966703962629291,0.08732773882022252,0.9316765828152911,-8.327327546581246,-13.445805608754105
2461837,-0.11881923724984708,0.0635267738626036,0.07650785942654084,0.7897118328932117,-7.332229033700136,-5.455741420400914
2461859,-0.1555409187715915,0.07775171479436603,0.05531219612359218,-1.662244048041263,-6.94704826700091,4.706648328268282
2461881,-0.19486368095282766,0.12292284585025602,0.029189572947084134,-4.256169765258119,-5.787634173368201,10.456030354725419
2461903,-0.21662042719367317,0.16644851994191132,0.004512915329600993,-4.767578051231386,-2.9734412079640147,9.846596303254092
2461925,-0.21303019816099153,0.18339287485722544,-0.014084003806586037,-2.7831053559360726,0.959561361822243,5.679634623893828
2461947,-0.1894785482487606,0.17477416865069378,-0.02436991831141317,0.4226150974796514,4.5729974121254395,1.989403738185237
2461969,-0.15856270688778473,0.15730324888190644,-0.02582798135558966,3.4263103797287067,6.607424601049128,0.7501880811157747
2461991,-0.13416435340566274,0.14347687473680032,-0.02003429339640323,5.630683407474605,6.648554485845593,1.154078588075445
2462013,-0.12613606448794862,0.13408826928162138,-0.011146862100849472,7.013634639546069,5.153393518026553,1.2582501092799327
2462035,-0.13539417198197112,0.12303833207467345,-0.003723636191078467,7.576644729931789,3.1006921491389776,0.11357121629654333
2462057,-0.15315378182775954,0.10423968820570609,0.0007817341528736294,7.237786585897917,1.4884685568682863,-1.5213619446406044
2462079,-0.1674708196810305,0.07763171561611072,0.004141993082995564,5.976062271723636,0.8659656063856452,-2.176226962325226
2462101,-0.17251166687204303,0.053108321651766745,0.007489230634858043,3.9346793562724125,1.1798003301461297,-1.0542334190777969
2462123,-0.17138729849006,0.045906849438460524,0.008803137553826291,1.5605073137240493,2.0084607168070567,1.4777481033736983
2462145,-0.17052013219712098,0.06302059702994103,0.005441592117601278,-0.31151061904887534,2.8736745407112982,4.342592506244078
2462167,-0.17318732511379722,0.0939439110302835,-0.001721401059361843,-0.8000942352594248,3.388054209100553,6.4619895197277275
2462189,-0.17841072282258263,0.11776945135651543,-0.00822339859368732,0.31035833435450816,3.3875709702108634,7.253990458313346
2462211,-0.18313619794210734,0.12049128824503115,-0.010251728212813647,2.174562293010178,3.134969891779421,6.803093211943297
2462233,-0.18399114524816712,0.10458153966762049,-0.008048456232486964,3.3564461136691075,3.276605809817206,5.669964805612701
2462255,-0.1789536573379455,0.08201232956408142,-0.004648212704389878,2.893611697321657,4.342726573143143,4.437840174709566
2462277,-0.16939280429445386,0.0604581656304653,-0.0019682180851526166,1.0763972112179736,6.197422148458096,3.3281475117768076
