timestamp,ax,ay,az,gx,gy,gz
2887977,-0.006165920425474335,0.0022729831737618974,0.006093424781489569,0.07329117546807715,-0.7371813120498304,-1.1406383873291315
2887999,-0.004351063790550483,-0.0011849907892828094,0.004900637489194139,0.23437625684223512,0.1340925864019046,-0.2904428215595263
2888021,-0.0008487585550556648,-0.0034431514202284195,0.002520856633372889,0.3117347643366227,0.6815285078416171,0.21358047019471754
2888043,0.0037225589445819946,-0.0037758232038251683,-0.0006566624934884265,0.2525135192586088,0.7699573887613648,0.28850544821033425
2888065,0.006857886308255634,-0.002492001499623482,-0.003161140826906809,0.07840015049034062,0.5016110953816926,0.13802417657875302
2888087,0.006668804704194941,-0.0008051516139709044,-0.004132374463479899,-0.11654830083122486,0.10503041523444104,0.03514687526139094
2888109,0.003587135242555763,0.0003732627965130321,-0.003923662935241098,-0.24048649159750732,-0.226214377676473,0.09079255068046507
2888131,-0.00020211090885088857,0.00142720244427118,-0.003234376215978592,-0.2642058112136723,-0.4160142963285453,0.21040275153441262
2888153,-0.0025682876404386776,0.003292493270466105,-0.002261662572881611,-0.195116268404517,-0.48149252746930093,0.22850489481860736
2888175,-0.002723341464048734,0.005715390681467948,-0.000871410401525104,-0.03035352267537393,-0.4627549629600045,0.07271943388099074
2888197,-0.001122607578578633,0.006872284814210701,0.0006398733580955059,0.2191236623070981,-0.3705784756417193,-0.1648951731685209
2888219,0.0014167629300340673,0.005070860560905057,0.0013437758651815412,0.470466710484991,-0.19438957755353253,-0.2902095226942581
2888241,0.0040609555942219735,0.0005990582625563885,0.0006522905545403654,0.5830464439861484,0.03321985114966508,-0.1619627804637571
2888263,0.005704094222199972,-0.004298201235778981,-0.0006276645338556938,0.45761403403929946,0.20796717400925174,0.18489948258353514
2888285,0.005368637496820311,-0.007113424064877644,-0.0009456195918428268,0.12084987500368419,0.23808670401647541,0.5629315503331421
2888307,0.0033265200784067207,-0.006671607070796666,1.8738186678700868e-05,-0.2909089439088312,0.1490221033730503,0.7759908973260804
2888329,0.0013203528208200026,-0.0034060153141142963,0.0006795126629539987,-0.6270690637121257,0.05500836261605142,0.7423164825454326
2888351,0.0011850767345770229,0.0013777886739569267,-0.0006367336705939791,-0.8040378534560063,0.02206427989877456,0.5108659714622503
2888373,0.0032252379109730792,0.006267519267946346,-0.0035043918299201963,-0.814468683944522,-0.004133688642963129,0.1998711299125695
2888395,0.005965435171016479,0.01009771237073943,-0.005582292931600668,-0.6909407331286099,-0.126689624333701,-0.09053783440121985
2888417,0.0074402510087057845,0.012058187178885895,-0.005033438058241443,-0.47855011082392973,-0.3785380196035481,-0.35472225076414593
2888439,0.006803907664543669,0.011743232770897363,-0.0023839080361108176,-0.23065995292242886,-0.6802267839685826,-0.6799078789982357
2888461,0.004884029863889479,0.009220549154070569,0.0001925761130552005,-0.007239451528571129,-0.8973239766890808,-1.1270088131845812
2888483,0.0033089098201437082,0.005147631538373794,0.001123962477720469,0.13760767878939523,-0.9370948204224185,-1.6009902457967933
2888505,0.003028844662268648,0.0007660430689534215,0.0007035130443246645,0.1690703361483579,-0.8127086524137372,-1.8832112416232307
2888527,0.0035815679298913123,-0.002452343196841884,0.00032543852646278694,0.07518245575397034,-0.6263065180198883,-1.8216960394213142
2888549,0.003870577423364885,-0.003438043700013392,0.0008244969840888121,-0.12555103674601997,-0.4764069450024307,-1.470906778459277
2888571,0.003658452062509828,-0.002061573843971648,0.001652807611003558,-0.36357907084422386,-0.37943768483718326,-1.0367095556314965
2888593,0.003968606852395092,0.0008195170427600957,0.0015837877322664002,-0.5250147155942401,-0.3011694198424161,-0.7147903992612137
2888615,0.005769657109931334,0.0038770566672445524,8.652725299519837e-05,-0.5215391991703158,-0.25625074330016784,-0.5866252545759036
2888637,0.008536566114461413,0.005978362825288338,-0.002131670532350123,-0.3687810442701979,-0.3311630898657226,-0.6185743014341015
2888659,0.010483542267487347,0.006495272404099874,-0.003863468146556278,-0.17828635416105382,-0.5928112511996354,-0.7149735344032772
2888681,0.010083431009602593,0.005276770197793412,-0.0043588677038836916,-0.06287098415831742,-1.0016255986217448,-0.7830179401807562
2888703,0.0071497700029304005,0.0027064190021916902,-0.003532712707819705,-0.0573270978188183,-1.417660463593536,-0.784091272304297
2888725,0.0028454194268096216,-0.00014009374798359343,-0.001757636679162876,-0.12315428879371526,-1.666780213182571,-0.742582109068587
2888747,-0.0008702914616329897,-0.0017767825162220588,0.00014656536310547524,-0.1994739711834707,-1.6256459804090024,-0.7045362235928364
2888769,-0.002193027000474952,-0.0012234092883750879,0.001091667077691813,-0.23628880814771916,-1.311571702045715,-0.6805930326676876
2888791,-0.0007543517434151472,0.0011402238223155961,0.0005763665322759256,-0.204035660460016,-0.9013235263585907,-0.6233186202376625
2888813,0.0018861156070484279,0.0036555858908585074,-0.0005622170922415004,-0.10386299877263211,-0.6039879609819203,-0.4664330809377777
2888835,0.0035977890555934033,0.004514097938779937,-0.0007959820761520185,0.01964573965761217,-0.48981250505782,-0.2048223490684874
2888857,0.003705730645567277,0.00318543556447554,0.00041534308280622237,0.0846433823031094,-0.4750303492730618,0.06463655963832449
2888879,0.0031993959449828735,0.0009874746830549146,0.0019501362618050866,0.0186053971638516,-0.4678073489365192,0.21814275521883725
2888901,0.002889260891924991,2.0371676304244363e-05,0.002341857679014386,-0.16986153690746345,-0.4603506132201754,0.24257919434722894
2888923,0.0022267667021358675,0.0011641201726527398,0.0014464885715826832,-0.3696480250739639,-0.4557109106419132,0.2606446057963884
2888945,0.0006198175971636457,0.00316742456093618,0.0003164548080137645,-0.4521442004346819,-0.38281530620250953,0.3811098099583222
2888967,-0.0007308001654469298,0.003938834621689359,-0.00037950324723453,-0.38900411411690017,-0.16920404319970678,0.5600954852787702
2888989,0.0003413195930909452,0.002684546139776077,-0.0010629582670526382,-0.2701679488585212,0.1062101129072643,0.6620877292955223
2889011,0.003942027184802589,0.0006876664177921252,-0.0021765989055466785,-0.20938823023120479,0.2103112978301086,0.6255983058303736
2889033,0.0069986298492950285,0.00013684766236700857,-0.0031460174478137723,-0.24709960115600138,-0.0262552518595077,0.4979887144176893
2889055,0.006220863690219839,0.0021756496792829007,-0.003029390834371503,-0.3300586839479074,-0.4913458286035728,0.31849788483376373
2889077,0.0019493454435110537,0.005725507596698566,-0.0018331028550144506,-0.35886501702918616,-0.8448976427723176,0.0558529177218184
2889099,-0.0018247689140057973,0.00808166628213729,-0.0005158648607446447,-0.2655183221500843,-0.8189013648310709,-0.2920884636036113
2889121,-0.001554582679286206,0.007092543361917756,0.0002355348425655481,-0.07950020663694292,-0.45282537336494705,-0.5925292807024951
2889143,0.0021998987495747517,0.003160874197626945,0.0006572661636205839,0.07492717822854214,-0.028386418264318158,-0.6537497315192651
2889165,0.0056272998570371345,-0.000980924363654614,0.0011794603344711914,0.07468835352801621,0.207265817546145,-0.4206678716403062
2889187,0.005968220455063618,-0.0026587043312661677,0.0014821143516317052,-0.08989944904611834,0.23649315694985262,-0.05218078410092034
2889209,0.004242749399763467,-0.0013864275568963697,0.0007629157019438854,-0.31021618903787596,0.20517165169648932,0.22072968047219643
2889231,0.003401138219051184,0.0012960148531521278,-0.0010096826819383752,-0.4747446714482953,0.2132501659977599,0.30190436883847926
2889253,0.004592456114109907,0.0036597482936929753,-0.0025519255819409256,-0.5670164980337751,0.2231272649936717,0.2838943625634635
2889275,0.00632774592360255,0.005082967947202185,-0.0024566693117437865,-0.6290629861336315,0.16591361399794793,0.3079106715414541
2889297,0.007038023234389106,0.005773991203842676,-0.0009041587492647534,-0.6581038550943362,0.05963607603454315,0.39915286702953795
2889319,0.006967393114364868,0.005952158639795863,0.0003389526512425883,-0.5956049689193731,-0.031108757674054185,0.4586015469621294
2889341,0.00694412049049018,0.005677712654819185,-5.960806569981591e-05,-0.42421529894320315,-0.10369814841627079,0.3964541338845097
2889363,0.00655430648048566,0.00505842441998639,-0.0013663023701303253,-0.22270795105124,-0.2036818665429927,0.23421804619131634
2889385,0.0048617435104315355,0.004126277922249785,-0.0017016132930985186,-0.09552792957095971,-0.3103287876580315,0.07292506143770763
2889407,0.0024639354677652137,0.0027232831427225334,-0.00037833070763864724,-0.07886261491935426,-0.32004325138271744,-0.003180174010031204
2889429,0.0014629909924133275,0.0009504975742760743,0.0013995126309256489,-0.140925820238069,-0.17828383646612597,0.021187803349293762
2889451,0.0031405101424016027,-0.0003910874590732628,0.0022503964263327365,-0.24657130304280978,0.028075498710567047,0.10393824398684745
2889473,0.006482363698455926,-0.00019275420631399546,0.002230023517454574,-0.38717870761046447,0.15610363020527024,0.182498925906205
2889495,0.009248379686597984,0.0020853831574931606,0.0022619522711973994,-0.5506882451903792,0.1506372463951903,0.20540089242190143
2889517,0.00991383087737354,0.005971182772292545,0.002544377238286163,-0.6831505522527198,0.06553578261575016,0.14373081765106202
2889539,0.008613685277063628,0.01013407382463953,0.0022411455089449365,-0.6934811959980094,-0.018181827567418797,-0.006976209215002073
2889561,0.0070046170234148485,0.012761938006643839,0.0006430207677470889,-0.5113834309254607,-0.04791868245422903,-0.20490908998086832
2889583,0.007112756913294351,0.012190323574110071,-0.001785043810316575,-0.16373753571273003,-0.017274631564672842,-0.34484744533218814
2889605,0.0092944312288729,0.007968672695357244,-0.003512797076406391,0.1940771598253619,0.006120525131005745,-0.3227471023213089
2889627,0.011299527960925112,0.001713650975476465,-0.003056088144539425,0.3441119948771873,-0.09666022387082635,-0.15917922914905927
2889649,0.010351961299088153,-0.0034030346527288593,-0.0002896454203216474,0.148736141436908,-0.3686787097338795,-0.023982747090701133
2889671,0.006369013290807614,-0.004522792916173586,0.0031353503055922835,-0.33707977271079365,-0.6753229138879422,-0.0915211964188031
2889693,0.0024422478792225015,-0.0008209930093486823,0.004882973642405362,-0.8844761480483692,-0.7898683053672343,-0.3774761437832531
2889715,0.0018786364048840858,0.006126353525831918,0.0037476622226102073,-1.2256578484630711,-0.613664971500581,-0.7373521852167125
2889737,0.005001917454939107,0.01315591320533548,0.0005707052464499044,-1.1999044883003853,-0.30694029071703105,-1.0069620131016244
2889759,0.00890364340698076,0.016901791156128346,-0.0024939458858636997,-0.8264195705991034,-0.1737691882605952,-1.1157893939257202
2889781,0.01018475867542112,0.015437289092460012,-0.0035670387077556985,-0.28756649324701455,-0.3796654977965359,-1.0755615814373387
2889803,0.00794163758705269,0.009549335805043085,-0.0022029324798956253,0.16141233690330473,-0.7758090995522942,-0.9119230246144705
2889825,0.004326629981328966,0.0025338136842519557,0.00047262914925208223,0.3269759460614654,-1.0327384315541472,-0.6510024484693759
2889847,0.002474853427100291,-0.0018484007937212097,0.0025750884684212546,0.18810513493973896,-0.9629796015665336,-0.3599087455338246
2889869,0.003813342257514495,-0.0018459919469491224,0.002800562468360748,-0.10608676629637614,-0.6936474455329426,-0.14443229350901365
2889891,0.007083103279237942,0.0014703770295496639,0.0013626331740720264,-0.36536005049212605,-0.5114111722615766,-0.07079985396926733
2889913,0.009839572166673617,0.005585779058722643,-0.00036568575429984967,-0.5034071031168345,-0.5605428703382018,-0.10355707365548833
2889935,0.010778215587894595,0.00855812382870782,-0.001137424080904708,-0.5690123435031595,-0.7216162567486453,-0.14276009423062785
2889957,0.010380441808590019,0.009920716539431728,-0.0006774141458665243,-0.6533540591022728,-0.783106956604315,-0.11589255762001947
2889979,0.009605282821900001,0.010275971946671151,0.0005137652912995455,-0.7838772403557738,-0.6929557439890506,-0.026781602739329034
