timestamp,ax,ay,az,gx,gy,gz
2902013,0.004079867044382391,0.0018710571095640243,-0.002578175958016204,0.3375643264914083,0.1067105512312697,-0.5506038496106572
2902035,0.0013482839169139272,-0.004519701145715453,-0.0004238035852707771,0.1528559718757601,-0.0021243915520407775,-0.24681338351788798
2902057,-0.000854561645006169,-0.007978197544578658,0.00100967431381829,-0.029363291468256232,-0.011208000649758229,0.040190914095749555
2902079,-0.001868095917404274,-0.007224266008075782,0.0011580451361423555,-0.19580158787640659,0.08632201668263088,0.2689849450853767
2902101,-0.0014564328295059183,-0.0031605724664894677,0.00014940234710637533,-0.3185409129986464,0.1906914829826779,0.3830935005258632
2902123,-0.00036486040746968213,0.0019562087684631205,-0.0009797166349057205,-0.3581515038815435,0.1817682213876501,0.35165542821151563
2902145,0.00015038471937075943,0.005866519906330806,-0.001057352244271777,-0.2773919744729462,0.03267770328456953,0.19777636262747353
2902167,-0.0004981225576146386,0.007118895805882818,0.00012375514106702972,-0.07120928999533901,-0.1595169251884509,-0.017795455060106935
2902189,-0.001660993144062716,0.005198466183586943,0.0016312955379630865,0.2012816298008179,-0.25875130174412725,-0.2281322124397295
2902211,-0.002099885515875724,0.0006822572663347243,0.0023154899880456436,0.41794506314807944,-0.2086662186831177,-0.3601694295011348
2902233,-0.001241252043616096,-0.00447150469070397,0.001802954794233086,0.4518371127828162,-0.07754731799564427,-0.32608196471622836
2902255,7.123274809232882e-05,-0.0074776430789119655,0.000681371196746697,0.26141585810293977,0.003983005073066594,-0.0755529977971067
2902277,0.0001660310486833556,-0.006490843141933283,-8.087035458806912e-05,-0.06285356374847514,-0.043315935870427424,0.30320623918563605
2902299,-0.001767051346844799,-0.002099797632174744,4.412342212488755e-05,-0.35694320357246834,-0.177009317668314,0.5654093722277846
2902321,-0.004499328341643433,0.003159029149500204,0.0006364749788341418,-0.5063798968861801,-0.27011187487351596,0.4670769602088453
2902343,-0.005686840003381819,0.0067994903988304245,0.0007036233234221299,-0.5046666922799466,-0.23165243818294853,-0.012544585741984799
2902365,-0.0043045747792575615,0.007766101952437457,-0.00012310257936411226,-0.3832840610466097,-0.10035376823652317,-0.6125793333361533
2902387,-0.0018507963974470278,0.0062017589938338615,-0.000912632147125389,-0.1239460013739877,-0.008194694205989795,-0.9799964576126889
2902409,-0.0006629596159074379,0.0027213706697645284,-0.00045489587725062953,0.2944430858586784,-0.040183613711599134,-0.9351286876258064
2902431,-0.0013014851235411617,-0.0015928495349643835,0.0010856223485654216,0.7537081530385392,-0.1449767015734904,-0.5746985370712331
2902453,-0.0022703737174047476,-0.004918181150653096,0.0020940424682876044,0.9829160846074126,-0.20631322717151448,-0.15328130993599748
2902475,-0.0022496034377477688,-0.005316133286429163,0.001251082997248939,0.7792809431784469,-0.19008765580257425,0.11699411553174907
2902497,-0.001741786585150053,-0.002215512016983141,-0.000990153870874768,0.24972903969085988,-0.18003034430372422,0.18121995485494302
2902519,-0.0020688017317460365,0.0026777300807202553,-0.00284572326788202,-0.22892737236301802,-0.26085425523958405,0.11457113200441785
2902541,-0.0033503438330337205,0.006247812626973327,-0.0028867517479093407,-0.33137027293184074,-0.4140577375811975,0.014982182321662277
2902563,-0.004337691112675585,0.0062760325260058656,-0.0011140541829904387,-0.0645128777455623,-0.5612559322981402,-0.07797825789211968
2902585,-0.00422174659844379,0.003361787220881535,0.001368412450172184,0.27496512814544616,-0.6670771712718045,-0.17739133651508154
2902607,-0.003732690478810408,0.0004262928275090619,0.003305843677231769,0.4120204891076214,-0.7398527753694212,-0.28783635089780457
2902629,-0.00398754659041561,-0.00020414606571529713,0.003963430974338299,0.34586757933327716,-0.748721643748684,-0.36622915843811316
2902651,-0.004827989489353264,0.0008278323263989708,0.0033689133937238203,0.28877479384364046,-0.6134259584678124,-0.34355107731820356
2902673,-0.004940638717076584,0.0009532535768103206,0.0021277047645124722,0.3881393858290704,-0.3072908340573112,-0.18510091958899763
2902695,-0.0034831193448004866,-0.0010482345498283169,0.0008073075832669502,0.5600633212032832,0.061440769992750326,0.06249680973323325
2902717,-0.0011916710894909238,-0.0035458978767279286,-0.0004600190602342233,0.6010786074410956,0.30579981048764804,0.28655229263596227
2902739,0.00021222476411636288,-0.003976279456009009,-0.001542841719327426,0.4181385164622969,0.30674994469022904,0.3890902460551854
2902761,-0.00033817558026189465,-0.0016890087558714766,-0.001781030998917584,0.1225104881942969,0.10629672484007607,0.36193624735332297
2902783,-0.002250650668484484,0.0014241703988124264,-0.0004929706154283408,-0.08245992761974269,-0.13731337488162013,0.27644544055800796
2902805,-0.003898069542841472,0.0028288754353117114,0.0019576088706456454,-0.08324999908352641,-0.275400750865644,0.2074756215765658
2902827,-0.004082117634414575,0.0015887120733487179,0.004109550225106315,0.06457461398578071,-0.24994565367633356,0.19151713980831236
2902849,-0.0028675460775887066,-0.0010814637172075476,0.004683615428598002,0.20856212024802115,-0.0870770138646038,0.2529393866527466
2902871,-0.0013730459584524919,-0.0030146535245715892,0.003700099131704378,0.22880953775847596,0.13180321074452855,0.41411322515253507
2902893,-0.0009739045838177484,-0.002663123055545843,0.002150630315023077,0.10745939071655423,0.2875231605440804,0.6325951880255551
2902915,-0.0023319931561907536,3.597578558961366e-05,0.0008396483144625725,-0.08460291694659375,0.2821132298980017,0.7573923993914408
2902937,-0.004776180785982757,0.0036508627363184528,-0.00010309920032421324,-0.2365440719961033,0.13887163508503816,0.6207300259527633
2902959,-0.006574598395774274,0.006081121492833642,-0.0008025852832525985,-0.25593895714543924,0.01843809113957897,0.20322409412583078
2902981,-0.006012714241397556,0.006061527395022575,-0.0012932568066069898,-0.12812905320958318,0.07175398669834276,-0.3199823931039357
2903003,-0.002691021266982523,0.00422998682765712,-0.001590905574949769,0.06866414097985624,0.2631343258624006,-0.7196319143120016
2903025,0.001787895961456262,0.0024163196573744453,-0.0016396444252843782,0.2280358614134491,0.384838973430613,-0.8887440614943468
2903047,0.004703213967277444,0.0016441383572540504,-0.0011702335571661894,0.30305169458130055,0.2807458284369374,-0.8785067637710049
2903069,0.004483031548296609,0.00114295765580754,-7.716749822271493e-05,0.31891000003670156,0.027285794652060096,-0.7912585094073349
2903091,0.002179871284965026,-0.000377007740331412,0.0010153745338922784,0.30489914066431195,-0.15369651355525618,-0.6689485881378057
2903113,0.00023979614298309232,-0.002752596792282548,0.001086114874360433,0.24352050927300284,-0.1518698375346777,-0.4825490154308211
2903135,-0.0002464046731574471,-0.004140237945823953,-0.00010390482922232762,0.10295364669527085,-0.08529251328862406,-0.21050045627410482
2903157,-0.000573914677560129,-0.00282916419525671,-0.0014424321327284276,-0.09773277968294433,-0.142764227317219,0.07631716662766495
2903179,-0.002443493048154213,0.0009434534379244076,-0.001440986738037451,-0.27677163925471737,-0.34549572409438495,0.21452466366788453
2903201,-0.00539258273442193,0.005017437545319063,0.00015533342413525335,-0.34132192398568123,-0.5055523785751466,0.07253519949144732
2903223,-0.006931004166824693,0.006966606245361388,0.0019693279028562003,-0.24917498206592578,-0.4292839175068071,-0.29390221362608066
2903245,-0.005376132201760294,0.005820458475096658,0.0024223426519721265,-0.040656999873787285,-0.13987256981498175,-0.6392108250155254
2903267,-0.0019164961845631672,0.0026096964148086166,0.0013936377468488175,0.17075381650288063,0.12978622043036744,-0.7331443659833271
2903289,0.0006530127254979831,-0.00044035107989995494,0.0001352752904443189,0.25614892714195175,0.16572040725882053,-0.5727690190465634
2903311,0.0008861697482516338,-0.0013997823703243114,-0.00031697119203710615,0.16158199348722882,-0.028015161479637122,-0.3560961651975239
2903333,-0.00026872375231137634,0.0001612936366926823,-0.000148010435904523,-0.03458739760346376,-0.25809590469563615,-0.2474027083645513
2903355,-0.0011879837223881464,0.002938001192085159,-8.659601153447434e-05,-0.1668159910176887,-0.33586995713557327,-0.221399216028336
2903377,-0.0014141908187604384,0.0047401047286278605,-0.00020265774378022588,-0.11501188312087508,-0.22713296211271145,-0.15918234731035116
2903399,-0.001425285337188437,0.004006356258333849,0.0001739837597206921,0.08683261401477278,-0.042993177875873895,-0.034798197115222425
2903421,-0.001332893375127167,0.0010717418299005241,0.0013763345172957799,0.2738971432326091,0.07758148982646226,0.05843380648114537
2903443,-0.0006852387727367596,-0.0018921161213357144,0.0026603948496606014,0.29492934913095015,0.08082738129332737,0.042768282091438875
2903465,0.0005568971869262719,-0.002541146652520751,0.002864807702394573,0.14599664899439926,0.0328077503470734,-0.04564884875258996
2903487,0.0017301580287169506,-0.00039354436569866754,0.0016425228736464208,-0.03201709073995479,0.06011595231460009,-0.09491371549176843
2903509,0.0024662860416258163,0.0026793055440607286,-0.00028880553317834896,-0.08638874462103238,0.22446085799913937,-0.018036915921907613
2903531,0.0031325530903541458,0.004168924583682415,-0.0019293676467550507,0.01009551964777369,0.41782707372935224,0.1733362995762721
2903553,0.003672225138723651,0.003307427235204229,-0.0026635221198560268,0.14080454909455362,0.4115796829213808,0.3521893392851912
2903575,0.002900393520374288,0.0017408591692248028,-0.0024374797296435554,0.15978479956188507,0.0793464185701236,0.33239791942968244
2903597,-2.7130963756936113e-05,0.0018073904982919245,-0.001756309370252004,0.03471134239700546,-0.4268679956308735,-0.009272173721740298
2903619,-0.003922061097887964,0.00416397274108279,-0.0012983630879671278,-0.11409888354292406,-0.7827277085375564,-0.6198186555965826
2903641,-0.0062387855522606775,0.00705310839186536,-0.001161562699836434,-0.11765826831394866,-0.7864892788490657,-1.2637741137028087
2903663,-0.0053890059217421415,0.0077920233995111155,-0.0007172778560332518,0.08656363816797451,-0.5145327547994761,-1.6523463274166676
2903685,-0.002128196102983133,0.005065857249237627,0.0005022324125882246,0.3837205348441606,-0.19945366937966033,-1.626720446860022
2903707,0.0011291073856706801,0.00011962025652499918,0.0019878458611593697,0.5571764211390261,-0.011666125467929053,-1.2551484812617764
2903729,0.002290823341847971,-0.003995568316683445,0.0025763109460711776,0.4569977122888127,0.0332878614997325,-0.7613701546265733
2903751,0.0011529960811701467,-0.0045672264581025825,0.001545743134186651,0.13152828863092578,0.009343691545650002,-0.35146505448123383
2903773,-0.000814942933983044,-0.0013068450683297406,-0.0006494290277909574,-0.19426509234844735,-0.02662954989216375,-0.09944342745400517
2903795,-0.0020305379678521003,0.003278724834804045,-0.002688210853489089,-0.29550727818551614,-0.07311486661700438,0.024632831103845645
2903817,-0.0019652717034646483,0.005852468474637466,-0.0034419392697649176,-0.1340894203486287,-0.14905033020478514,0.05859958624719844
2903839,-0.0010944439859242516,0.004991547346464181,-0.0027667550685139893,0.12200043465573882,-0.25368280763489653,0.00969041435323608
2903861,-0.0002607922061347559,0.002103587520204168,-0.0013244075038745435,0.2653242411820431,-0.3646070956630124,-0.10624812924723737
2903883,-0.00019016434236288833,-0.00022377410075994362,0.000211099677611826,0.22469642246997373,-0.4608276794405396,-0.23703438274848954
2903905,-0.001286148613097303,-0.000485581153887349,0.001665033526488767,0.08125318097789677,-0.5380354035110433,-0.33172522398600945
2903927,-0.00342018055914687,0.001014128512773402,0.0030809798488562324,-0.04454113262957571,-0.5902292522957691,-0.3814927492278114
2903949,-0.005487888522109005,0.0030428533326767268,0.003910878610152152,-0.08146448408701706,-0.563297954210233,-0.39286446321407653
2903971,-0.0053248288351518125,0.004569088246574912,0.002697094707999242,-0.007208250802318989,-0.34392071362845,-0.3381760578929576
2903993,-0.0010786176112763716,0.005247034967744461,-0.0018391279753042224,0.17495561297750642,0.15469886342658556,-0.17575505647208964
2904015,0.006590233186792773,0.005347712729994172,-0.00907326596947881,0.42937019043258506,0.8702469876385224,0.0767628664550812
