timestamp,ax,ay,az,gx,gy,gz
2838829,-0.0037868655950719903,0.0003443053317781443,-0.002621381228001652,-0.8536728920887969,-1.1433994480209497,-0.6457559804639911
2838851,-0.0008065842529475903,0.003439763544395304,-0.002947195395181506,-0.5396932352153713,-0.21210065314843637,-0.07762287882568757
2838873,0.0011189843331863504,0.003932126788987576,-0.002892968792602472,-0.21324584947400232,0.35787908092845233,0.32937684291674735
2838895,0.0017100783157690076,0.0011638691201855424,-0.0018395519184780055,0.07383887045736275,0.43591838064056254,0.47060264814623287
2838917,0.0014525889681446652,-0.0027488853313081983,0.00028555719444632637,0.23623347153909263,0.18349045027898425,0.35351467133009457
2838939,0.0008257852874029982,-0.004454582021679635,0.0023844457903200995,0.2544744593951927,-0.09573332985902033,0.10439629199607378
2838961,-0.00013398091949362126,-0.0026400832602145948,0.0031172799540586534,0.2213315885648424,-0.17669081006143417,-0.10584500770431475
2838983,-0.0010778899181604481,0.0003406757509702709,0.0022701813480175853,0.25325441499367396,-0.019785139169297136,-0.1681875182520401
2839005,-0.0005579939268128183,0.0008575419498242256,0.0006477454505797945,0.34329205024151577,0.2625212043300468,-0.09534450851637168
2839027,0.002799106068449433,-0.0019460100613172592,-0.001055251198386372,0.3343084342081463,0.4781603334032867,0.0024528906024660554
2839049,0.007907287821751723,-0.0051092019452886935,-0.0025291595784532684,0.07998568788305811,0.43470710777797367,0.007859117620160498
2839071,0.011078365631570128,-0.005088899500059523,-0.0031948556543803055,-0.3647479165848907,0.0640058245593065,-0.10346100189920689
2839093,0.009397283777070702,-0.0017060644777615532,-0.0022118372451306076,-0.7471080509645088,-0.4751754179667143,-0.2270173339726862
2839115,0.00403551603416476,0.0015114614489125434,0.00045781629262047234,-0.8429873449542302,-0.8760304727418986,-0.20367387944380597
2839137,-0.0007254817296637385,0.0010756795627020084,0.003395940986809594,-0.6859033256721713,-0.9413677408898655,0.03740200463449477
2839159,-0.0018635431150744197,-0.002422087271022062,0.004565683324377489,-0.5491644143285568,-0.7649710101820861,0.3821794377124707
2839181,-0.00027720995013106605,-0.004244628438491013,0.002893833605779218,-0.6769645904141149,-0.622708954464641,0.5701763519205394
2839203,0.0009998758596106853,0.00010726410279514626,-0.0008808748882454468,-1.0216676886042644,-0.685170329548563,0.3638164870520088
2839225,0.0004033119898310238,0.010018684473542329,-0.004689346192672659,-1.2454178699606433,-0.8536143524999686,-0.24276630155392132
2839247,-0.0008093965545637386,0.019158241459957044,-0.006421722282583277,-1.0017844007522696,-0.8747136499279673,-0.9448336371762989
2839269,-0.0003852976207909908,0.020130753180686526,-0.00512599094629159,-0.26262428138928856,-0.6160557224039799,-1.3177103273037485
2839291,0.00225416701118136,0.010529972800012652,-0.001479133149925116,0.5984357581877879,-0.2321089237240035,-1.1636472673629328
2839313,0.0052299919538433,-0.0047120015906580315,0.002623212725247293,1.0580777001582415,-0.03690751336261797,-0.6678787733585153
2839335,0.0059365785666807905,-0.01656864053517944,0.005113369797216985,0.830168238531548,-0.18708964367867764,-0.18318561551410825
2839357,0.0035307712579113054,-0.018251539628658834,0.004914368630589704,0.06929479668000052,-0.5014722528553149,0.11295435858517362
2839379,-9.906304031374538e-05,-0.009969475357706757,0.002502726530448385,-0.7606284730699736,-0.6287759598019158,0.3113309368539795
2839401,-0.0017609591076550425,0.0014476778880949995,-0.0005903728509672771,-1.2299015534878774,-0.41113434959632167,0.560333070355606
2839423,0.0001942524344423441,0.008016782622437164,-0.0029144412280833025,-1.2305136004744441,-0.06788709964904147,0.8423293285869295
2839445,0.004011321671280764,0.0070749441856790985,-0.003901023812735853,-0.9960208492791558,0.0071818187267400115,0.9846338704194618
2839467,0.005905314414673533,0.0033704794669511626,-0.003918074329664571,-0.8437330291280987,-0.35871905089683936,0.8433247028440036
2839489,0.003860084622955139,0.0046418743775183905,-0.003832704617732708,-0.8560042630621875,-0.941579374286151,0.429849739012642
2839511,-0.0002604768783599609,0.014106278285228598,-0.004248842801269621,-0.7845820667069147,-1.3484847889398794,-0.11964659150239057
2839533,-0.002837079358616093,0.02632075671889429,-0.004692252190900766,-0.2782791080929747,-1.3839271626182663,-0.6343976763210153
2839555,-0.00220368370576303,0.03063360065910194,-0.0037184161561904863,0.7419652704175529,-1.1597100300458083,-0.9580496787044777
2839577,0.00038996584373664634,0.020254818318671874,-0.000506684080894552,1.8797703443705411,-0.9002162735534472,-0.9856590624518641
2839599,0.002847761528406339,-0.0006751954317383875,0.0035708245458019898,2.460166984310559,-0.7385336512823042,-0.7306392710775362
2839621,0.0038572426396758144,-0.019234123597305485,0.005769471428456347,2.0392192619317657,-0.7103851334409732,-0.34944013099605475
2839643,0.002358606690469281,-0.024168055268721053,0.004897105201738862,0.8051766563496233,-0.8287170196966046,-0.043630080474949096
2839665,-0.0026775283590022673,-0.014983063935448467,0.0028334530640399115,-0.5258633441671797,-1.042901435663482,0.08452639936489367
2839687,-0.010125198912810482,-0.0010237916990324708,0.002309843663564051,-1.256697649831014,-1.1434450709998785,0.07043037640584288
2839709,-0.015227052198488215,0.007589464748719512,0.003513214559457561,-1.2020509037794866,-0.8531653258357851,0.010800070738013142
2839731,-0.012896808293996332,0.007612032795282654,0.003985313718997188,-0.7093536813055792,-0.12520221465526776,-0.0032113652742666887
2839753,-0.0035265608647343156,0.002768985605436511,0.00196925708295199,-0.2731361618027099,0.6770484298461594,0.09224219971967637
2839775,0.006036219897656305,-0.001331053830364263,-0.0013334149277741635,-0.15159003762094236,1.002761982752042,0.2834451922992008
2839797,0.008753902653662576,-0.0015645383967156491,-0.0034670819324979334,-0.28108977428579557,0.5889014629504691,0.4254102794352795
2839819,0.004113825475626477,0.0018938857472918515,-0.0037647071180742222,-0.44407372200236267,-0.27854551815156214,0.31604374208331903
2839841,-0.002317232120347441,0.007051072144579456,-0.0036418484063877035,-0.46427457104654174,-0.9976883928315007,-0.11415610032056886
2839863,-0.005297721728136568,0.011555008191730508,-0.004176170023813198,-0.283018417347602,-1.1617240335002028,-0.7070826471911057
2839885,-0.0045227172234345355,0.013261200058831371,-0.004478077722457103,0.06399385939355542,-0.854911176239731,-1.1998045415343823
2839907,-0.003142978253436098,0.010545137289746442,-0.0028267057329272086,0.4825882938183063,-0.47155264214605447,-1.4152724322168606
2839929,-0.0033202575180876414,0.0031728063572584388,0.001071119509421849,0.8336548413513645,-0.2874623845298726,-1.3121614907992858
2839951,-0.004142768372221185,-0.006574062794662748,0.0053169040149758946,0.9594374717406723,-0.2495244956189592,-0.9147102682092566
2839973,-0.0034449071209090494,-0.014069040680768094,0.007213363232363336,0.7604008575556483,-0.17279063707984485,-0.2961392329713546
2839995,-0.000803331601751728,-0.014970769949267274,0.005459091090886577,0.29009555832549005,-0.05323517573780595,0.3609410479806436
2840017,0.0016683956303822586,-0.008909152675891525,0.0013583066113904126,-0.23393486066724076,-0.08625439659402513,0.795653859086151
2840039,0.001425478038715472,-0.0005750438340145535,-0.0019944271992137805,-0.5647037660003589,-0.3723738103351032,0.8658248212413666
2840061,-0.0017031414291722047,0.003895722968448462,-0.0022283646654371043,-0.6137692986765044,-0.7082954757106901,0.7122134213209131
2840083,-0.004896351790518906,0.0024149679949414383,7.45947664323462e-05,-0.5065830149369301,-0.775611011592721,0.6430720233542125
2840105,-0.004992606018409815,-0.0014010937849747217,0.001900181159448854,-0.4359774514964752,-0.5319841741679663,0.8082235851607864
2840127,-0.002128321063982466,-0.0024907526037628645,0.001107826131785689,-0.4675122741555699,-0.30571850034117276,1.0333337336815909
2840149,-4.0288342538028816e-05,0.00017988326469436087,-0.001002757340065994,-0.5122561422562889,-0.4242112510604483,1.0294726604663695
2840171,-0.0018209243364894693,0.00324479247168964,-0.0012054078279185973,-0.487736873394381,-0.8110560742903853,0.7292319870951929
2840193,-0.005970800724960079,0.0039012507712998913,0.001566640632597208,-0.4520813067608299,-1.0741953982501826,0.34173713902975283
2840215,-0.008075314634009003,0.003873624174329127,0.004579442232022063,-0.5150873546452741,-0.9902228247591541,0.08752994382598646
2840237,-0.006204473612993165,0.007180629253984702,0.004261086073606413,-0.6201704845651047,-0.757697832536072,-0.03377983428258661
2840259,-0.002927557932593662,0.01421153568137474,0.00021518208048579296,-0.5033873658079733,-0.696026500467261,-0.17895854789826174
2840281,-0.0014995553688922413,0.019481326855134058,-0.004384619300056744,0.04809823645322383,-0.811760935522407,-0.425505160374979
2840303,-0.0018784144925155935,0.016312382376358046,-0.0060284790818401985,0.9039020867165724,-0.8108641924769803,-0.6586319399471053
2840325,-0.0019574734085582453,0.003568295317610133,-0.0037276338511328436,1.6125621781070327,-0.5029223599538752,-0.6776531713418987
2840347,-0.0012929652115239271,-0.012655207244547833,0.0010055456137554768,1.7395433675171053,-0.028653056038469134,-0.3733380025390086
2840369,-0.0012255951177087257,-0.02366033043034162,0.005718852198525393,1.1870805352675988,0.35115651057020636,0.19118595654612705
2840391,-0.0017345050189570825,-0.024135133640848613,0.008184830798380041,0.22557515402627087,0.5420644952200753,0.825331507300437
2840413,-0.0008550940374882364,-0.014601002160112867,0.007205551681243817,-0.7087329015097952,0.5923082657786136,1.3134596084521288
2840435,0.001987335770536679,-3.683817051101121e-05,0.0034061896116885995,-1.2262930344390381,0.4979202908356949,1.5001275392693958
2840457,0.0041727981999678445,0.012738539130480552,-0.0008658546785893211,-1.1173510665802655,0.19034599361601115,1.3206075606585073
2840479,0.0029539270676884354,0.017715353004804764,-0.0030972378024299247,-0.4630896114491721,-0.2920768384510329,0.7997218319044795
2840501,-0.0007095732735091264,0.012798355634201503,-0.002494727591814001,0.3256697666530279,-0.7401300003300391,0.07443884533764095
2840523,-0.002956513238074075,0.001971851392335848,-0.0004954033796779648,0.7204760840810768,-0.9371584678041593,-0.5841382769067358
2840545,-0.0015872277545899013,-0.006760180027646352,0.0006929077570711894,0.489546732807442,-0.8588155896738056,-0.8660896794713502
2840567,0.0013658440666840248,-0.007703632513992852,0.0003014153952240805,-0.08260350700446266,-0.6757026504761314,-0.6368610239356756
2840589,0.0021942327222013638,-0.0025866197127139418,-0.00026399605639516383,-0.45954690789057107,-0.5567578326591004,-0.055493779321925625
2840611,-9.03687989373379e-05,0.001198613698608374,0.0009425892193980187,-0.36956535512270716,-0.5053981445590282,0.5647297271741917
2840633,-0.00295217888204863,-0.0015819073509179323,0.004101904319696587,-0.05915425660712241,-0.422222184684815,1.007396415861795
2840655,-0.0037753178815907638,-0.007503350525187577,0.007025708140514494,-0.035481353799583,-0.2931899092315678,1.2464526649713776
2840677,-0.002864846365569988,-0.006682444593688897,0.006806295337385587,-0.5335188212247591,-0.23213950205236894,1.3333124548466333
2840699,-0.0024319472740142235,0.006952150652122527,0.0023352801588651636,-1.2007028210813888,-0.31858716259985564,1.2648789904992677
2840721,-0.0034870652418611636,0.027476801031259893,-0.004369382079318333,-1.3354588213461698,-0.46834977643263076,0.9902595228966317
2840743,-0.004746641513890823,0.04063568827910553,-0.009380447003532218,-0.5254763170717368,-0.5244047042663319,0.52398094998402
2840765,-0.004413253576035061,0.0363465198719925,-0.009781305782620825,0.9008269679379277,-0.44875775920617184,0.023450709911559287
2840787,-0.0021494110094758758,0.01651249173850048,-0.005528918127645159,2.0863820967235305,-0.3714785127938239,-0.27000441891161103
2840809,0.0010230025780620822,-0.009678346529641935,0.0014078374091406529,2.3699737733664183,-0.44388871685440595,-0.2029739941277538
2840831,0.004217587513795406,-0.03592396859916037,0.009191260435502672,1.8643891490595197,-0.6699871154214782,0.14591436711455003
