timestamp,ax,ay,az,gx,gy,gz
2859927,-0.0020854283525711306,-0.0029561464734788505,-4.102351955515675e-05,0.6084982460598123,0.431520897593874,0.6656406452369104
2859949,0.00017838508187544672,-0.0007722552957181275,-0.0014269373465916413,0.13379635438212895,-0.08580634997140613,0.039466105053918454
2859971,0.00018954878682290457,0.0007246407173786049,-0.001254018969795495,-0.16226898965169118,-0.3763765655579955,-0.44135300719914655
2859993,-0.0016752395238609935,0.001086809214978461,0.0003088423467747811,-0.2147918430671279,-0.3131262079954939,-0.6212205112585871
2860015,-0.002827950543597067,0.000524470435575677,0.0015898953959352377,-0.10831174129274708,0.013013205968239513,-0.46030932515321776
2860037,-0.001448543445139279,-5.648224571633345e-05,0.0013317630617215312,0.00025626979815633437,0.3085573132280908,-0.13158869307274643
2860059,0.001466806122105621,0.00012936914909818177,2.385194042549625e-05,0.01470467765824047,0.3201865660071818,0.1151190660889754
2860081,0.0033221878761860663,0.0007860967424189435,-0.0008727209149887672,-0.03477640510818282,0.07871932412977925,0.18591223160583417
2860103,0.0027087770921424958,0.0007503428344620148,-0.0006226975613706549,-0.05776849727703859,-0.1610620926450319,0.17400884543387168
2860125,0.00045290558390570816,-0.0005571668209880737,0.0003073608081926056,-0.02403200059663006,-0.21935585252596743,0.18322723378607028
2860147,-0.001761315696486593,-0.00202503821886581,0.001098681969314698,0.0001974726603880656,-0.15670592648375206,0.20937159205797887
2860169,-0.0030519746764621413,-0.0015438873921088097,0.0012421981400273585,-0.058266004583555325,-0.13787041708219386,0.19800970294322384
2860191,-0.0036159349091716376,0.0018401422698745352,0.000601815796935137,-0.16698126138416897,-0.21614907551284906,0.13530889844866617
2860213,-0.003987041666219369,0.006336872058045006,-0.00038340665749843025,-0.18730362981574541,-0.29323153629598614,0.05138893939599469
2860235,-0.004257215199294627,0.008360670289491204,-0.0005930252567596928,-0.006667041705018315,-0.2441407613491118,-0.015419692454133988
2860257,-0.0038896087940016597,0.0057066520227526665,0.0009023180540999111,0.32037102808206014,-0.04697065189291605,-0.029395099754375077
2860279,-0.002488912545106798,-1.4389969128306563e-05,0.0036197911371138106,0.5768686988116376,0.18885186855653843,0.035011183155279534
2860301,-0.0008418624542476721,-0.00446823938450316,0.005775150394504271,0.5589584842427648,0.316364830539884,0.16807578576303814
2860323,-0.0004974456958434955,-0.004465561924533969,0.005841259912888856,0.26572650871044456,0.2992119371314617,0.31687999151839075
2860345,-0.0017461708789308454,-0.0007383391233479535,0.0037595635435957405,-0.0910945781103671,0.25742515672776256,0.4178595408721672
2860367,-0.0026803314791461062,0.0031588683052489025,0.0005983063702459151,-0.2758557765444996,0.3226369353958978,0.4377852588170643
2860389,-0.001301517867897076,0.004435291938428987,-0.002468869225999227,-0.22538301605842814,0.45285124436158664,0.38422230597565715
2860411,0.0015675214287239369,0.003304723286461061,-0.004490925870004913,-0.06207356929031895,0.45587395619142274,0.2889669691432133
2860433,0.002559211987063835,0.0019007474253885368,-0.0045408880444138,0.06060069352975249,0.23008804606176642,0.18955321368945818
2860455,-0.00048814247851132556,0.00157401717991801,-0.0020940262688098686,0.09481789653295306,-0.06630433726356014,0.11431322509015941
2860477,-0.005567380990178927,0.001673743283235935,0.0020818047084993027,0.08632173442406271,-0.15039115086806684,0.06805238709202961
2860499,-0.008108919061768366,0.0008723192872752289,0.005898541569870479,0.07047657489199355,0.07569142893279772,0.03585936659195417
2860521,-0.005780887798658508,-0.0007778297032114761,0.007332123655463692,0.019541466998496213,0.3941957390248554,0.014559168272321572
2860543,-0.0011677195962096862,-0.0014743951963044686,0.005875401520571434,-0.10618629938846677,0.4863324645904915,0.030203894669627463
2860565,0.0009365165512633968,0.000584056537187902,0.002570363820578434,-0.27708737585736287,0.2621229636319495,0.09212184678168285
2860587,-0.0012435069010193621,0.005166681990873061,-0.0010991367149832312,-0.38018865897864806,-0.06593652891440782,0.12335460857495338
2860609,-0.004640764983523051,0.009717982478611477,-0.004030035955028388,-0.29503534537429127,-0.2336701868645923,-0.014167534365680587
2860631,-0.004920837125138611,0.01098563303760961,-0.005422651961619763,-0.00013003331703164908,-0.19189035723405706,-0.36896618367292994
2860653,-0.0012369431072824326,0.007203839959364062,-0.00457441744151403,0.37512387925236995,-0.10020668913122466,-0.7801851309058935
2860675,0.0030408482417818242,-0.0005304841858986377,-0.001387655005699074,0.6071601453599608,-0.10682223465571541,-0.9618176914965602
2860697,0.003948793840564252,-0.00847740728567342,0.002882289490475246,0.5259057120911567,-0.19136416492086805,-0.7390805922439617
2860719,0.0007664409035639882,-0.01224645163270839,0.005893508324900848,0.15251347131474008,-0.21989519661764836,-0.19949892239929598
2860741,-0.003571502551367494,-0.009579959512037751,0.005711016315810852,-0.29206564587314077,-0.10670647752894695,0.3842822976456315
2860763,-0.005426009364530431,-0.0019528851105812559,0.0022907934887338955,-0.5324244866183728,0.09830471657989269,0.7603516654801794
2860785,-0.003834761762280773,0.006347372584641381,-0.002320936527560016,-0.42800913624013104,0.2546517599165951,0.8348256124642642
2860807,-0.001210533738188668,0.011043002619332755,-0.0053154718828902,-0.05552281964398545,0.2456668491448316,0.6606898230284389
2860829,-0.0006621669845377888,0.010516157846702026,-0.0051170053292924796,0.37054924261068645,0.07293414303126121,0.34915346425011295
2860851,-0.0026931698482969245,0.006396912079315312,-0.002458263267191694,0.6587784731835566,-0.14337846644785296,0.003633209496318679
2860873,-0.004956477310944593,0.0017978027614853024,0.0005349808094299756,0.7509793911617236,-0.2701636355788403,-0.29146062523494587
2860895,-0.005196467270148027,-0.0012160498855993233,0.002353582057851054,0.7104176765308223,-0.26994445799666095,-0.4595435388151347
2860917,-0.003556569167662634,-0.0027311549995506722,0.0030428529272292157,0.6240939230680786,-0.19009382415925383,-0.4410599149662576
2860939,-0.001586549839332973,-0.003891381282999351,0.0032706034627531726,0.5185221652196222,-0.0705820549533295,-0.23255467320881312
2860961,7.208383195782454e-06,-0.005000919879735561,0.0031011996840002694,0.35978374361448306,0.07271410108483181,0.07815390343552335
2860983,0.0014198686260249109,-0.004893327859537308,0.002170863296926504,0.12333710612448724,0.1699555075241427,0.33380958875696565
2861005,0.0020549782727682813,-0.0021660518096211618,0.000681539192614203,-0.14079419788045142,0.09959715566980308,0.4035431209588691
2861027,0.0005556045786734316,0.0029936707806050246,-0.0005775864983714471,-0.31092025866729894,-0.15369719426473763,0.2855018134139704
2861049,-0.0028579327242515967,0.008104223372587286,-0.001212167443296461,-0.2704228602231333,-0.3953958895343056,0.10984515493864938
2861071,-0.00548587411591123,0.009611821615439341,-0.0015149367105161456,-0.008871829478150788,-0.380389712506578,0.023739661322783025
2861093,-0.004853059755987758,0.005503096481421186,-0.0016455362802478288,0.329150061136708,-0.08849790396861021,0.07027784667010034
2861115,-0.0017867261424276168,-0.00255884752456052,-0.0011895827169625972,0.5084565626006893,0.2265725317903936,0.18044816750901727
2861137,0.0003291364888863812,-0.009743460985229825,0.00013713831319922328,0.3654245812914278,0.28993973657142624,0.2730580124867498
2861159,-0.0006221567391570647,-0.01142263665363183,0.0017345866492066665,-0.049186518330384454,0.07215795490158289,0.3474277645774995
2861181,-0.003330818798702266,-0.006729008523382198,0.002458237212683836,-0.4847280265408311,-0.212499263688249,0.4650337348742012
2861203,-0.005140749294890294,0.0008716689215772939,0.0017698274984303307,-0.6760679181330819,-0.337747132786486,0.6389611296046646
2861225,-0.005438173948049034,0.006414122993763228,0.00044243787807552186,-0.5423714799129414,-0.25876197046702454,0.769275916591824
2861247,-0.005841465958900571,0.007080359089662661,-8.588746247675723e-05,-0.22091105401023875,-0.09499722036916372,0.7239070972087326
2861269,-0.007262128556376676,0.0037784792112610073,0.0008074847902380585,0.07149791917850871,0.019682793940417206,0.481898646877951
2861291,-0.0082439721042067,-0.00015381423261103227,0.002267599630386129,0.19995386800789713,0.0463246378185278,0.16904280369358093
2861313,-0.0069862289189255725,-0.00178057603994764,0.0030226519084429436,0.1710386317528983,0.03929605726323866,-0.04919747150484592
2861335,-0.004142992170793505,-0.000694552098162096,0.002935087383864549,0.08475968791003968,0.07761388216800265,-0.09092466546063173
2861357,-0.00237521144501945,0.0012130336670723705,0.0029869215381387562,0.038859766321902044,0.1976845567457838,0.0159521989394847
2861379,-0.003129763242201189,0.0020111872111448336,0.0036400688318495946,0.05369706470303371,0.36738190354999006,0.1931282493647436
2861401,-0.004927111826537471,0.0016641196379489432,0.003904560456373062,0.07589316727418981,0.5081147295720468,0.3758619133957368
2861423,-0.005331813863453502,0.0015730288692468097,0.002612921846337549,0.060804522025934754,0.5508768284588722,0.5309884737402323
2861445,-0.003838591277020518,0.0024424610893086602,0.0001898293829511622,0.03930002654863104,0.49171361972231914,0.6423762035976335
2861467,-0.0020058987100290506,0.0032620726531914826,-0.0016239230796026868,0.07467205480749264,0.3956348490897813,0.7010054970766854
2861489,-0.001155189082593124,0.0027775512797635882,-0.00177317899625416,0.15969202511106068,0.3297358452316751,0.7079745294413108
2861511,-0.0010014623681971408,0.0015493557779783366,-0.0009743864187389424,0.20553463098686003,0.28422059258348203,0.6714172769034558
2861533,-0.0008172315386593008,0.0017179558633697296,-0.000560082769011052,0.1629409330897397,0.17921836625153953,0.5986438703669343
2861555,-0.0010339904972061934,0.004328243928790328,-0.0006433102022581905,0.12143395238054416,-0.021974006713322947,0.5052935578636424
2861577,-0.002700281204341814,0.007357235174090617,1.9776555907931363e-05,0.22801803073465515,-0.2195069618325688,0.4272699611089102
2861599,-0.005518590573768004,0.0072790264195181234,0.0022406069988043895,0.49000985839382527,-0.25342568315388414,0.3970981540579479
2861621,-0.007459701831211836,0.0029560309850481634,0.004960815235434023,0.7037575245356243,-0.09422854950602527,0.4049778311145437
2861643,-0.0067801223211676155,-0.002515694227426395,0.006049211339214927,0.6353659643946261,0.10027016342361972,0.4110164146061695
2861665,-0.003912584904631196,-0.004489994686338905,0.004391928609165567,0.2799406634902646,0.16367218668448216,0.4052461519402204
2861687,-0.001009619806515326,-0.001316658474798653,0.0009318657054671597,-0.09592857551580396,0.10686075494100691,0.4248086030516385
2861709,7.380889424323829e-05,0.004110071643431112,-0.0021455399958221323,-0.1927969706015803,0.061825456054873634,0.48779016045659895
2861731,-0.0008495598354256837,0.007161118762679379,-0.0030005924615131917,0.05377256169288746,0.07889870187657083,0.534281036075306
2861753,-0.0025935319720686197,0.00537759112530447,-0.0012543476991379629,0.44131584085098774,0.07206966659644838,0.4790324663129597
2861775,-0.003871145773513423,-9.95086717590684e-05,0.001921773568857046,0.6936090758902762,-0.021053837870928366,0.33502704673244293
2861797,-0.0042085598610135545,-0.005937309965756714,0.004682375593109485,0.6653405023571686,-0.10409344803417589,0.2471060490286891
2861819,-0.0038159332973662,-0.008961799162173725,0.005661775776504291,0.40453192241087954,-0.02074517370144415,0.3513917315508301
2861841,-0.0030438807920963413,-0.007824175989178839,0.0045635927183562495,0.08298099687055407,0.20780364011371932,0.5888705472628134
2861863,-0.002325754858369425,-0.0033230944303040844,0.0020007363233658835,-0.1206592393484877,0.3071700797007101,0.6993655289212479
2861885,-0.0022157615604782104,0.0026876140943285585,-0.0011092939446589113,-0.12076948393164025,-0.010261825936634723,0.450946982245513
2861907,-0.0028056659592108663,0.008932078807597743,-0.00422646706633338,0.030612704583404166,-0.7125593480540494,-0.11288410444251473
