timestamp,ax,ay,az,gx,gy,gz
2909031,-0.0030742338475990764,-0.0020248970303607815,3.1249576294807365e-05,0.11917363170761494,-0.010765901827266194,-0.030516483520099044
2909053,0.000908347632945349,0.000172721237314689,-0.0016181146982910573,-0.06296188195110407,0.17559956236329988,0.12859804080785037
2909075,0.0024987402000802663,0.0023582116704376375,-0.0022370635315059066,-0.16285322432668628,0.17256727832385485,0.14035422366669922
2909097,0.0012945312878046545,0.003601868256851861,-0.0013871351890170774,-0.13454988109429486,-0.037764632035215843,-0.01838320944521966
2909119,-0.00098646196324141,0.0027860758613146427,0.0005368458812152591,-0.004343936576869977,-0.29361474594766873,-0.23422482689221855
2909141,-0.00221072673232065,0.00015388487774490816,0.002481531796065096,0.13104707311748084,-0.4010035894965296,-0.3537646035675334
2909163,-0.0015827042521103806,-0.0024792092621015237,0.0032398656366646717,0.16977901167579554,-0.28906764833011916,-0.29266138552468146
2909185,0.00010280772995405181,-0.0032611851717468613,0.002153867520831565,0.08484489625080659,-0.04726726540070568,-0.07696747085466085
2909207,0.0014951509975548282,-0.0017893385356031735,-0.0003413747518430989,-0.05985322264197765,0.16191041736685508,0.18903133445969467
2909229,0.0017927124784636753,0.0009580823082442191,-0.002944711822849335,-0.16681381388971409,0.22918916808833578,0.38890387253463093
2909251,0.0011223208707408043,0.0036896898871679844,-0.0044751163982841334,-0.16966278339107,0.16035869844078385,0.45502589356711515
2909273,0.00011122672193418863,0.0054147744214410555,-0.004553927320879171,-0.05390148123090521,0.034049774101659075,0.39884240161415235
2909295,-0.0008653800014931869,0.0053297085713871735,-0.003272942103829025,0.15203504512664723,-0.07734433442823922,0.29609312203242705
2909317,-0.0019026791483083207,0.002939264759633766,-0.0006996747588705422,0.3829621430767688,-0.13193762691050537,0.23243915689600722
2909339,-0.00298356485819198,-0.0011830053330293972,0.0027047315342840607,0.5484666899002243,-0.09703236444927066,0.24681708074019235
2909361,-0.0035489340458621744,-0.005016948972673531,0.005422817379370992,0.5758970412057421,0.041390528704933094,0.31993940731487275
2909383,-0.0030870044416867865,-0.006159061952463535,0.005574506355053653,0.4651310956986381,0.23620408827642217,0.41040410078446976
2909405,-0.002018340405803276,-0.003726632853177641,0.002791975633589696,0.2977841295383102,0.38306307691398217,0.4878445167839029
2909427,-0.0014853621954924838,0.0007297907003598388,-0.0010127867674655396,0.18312363002712617,0.3984472756509651,0.5294829542069377
2909449,-0.002148246668320722,0.004282655202243121,-0.0032802358984896406,0.18703161989779074,0.2935832956264913,0.5045661275046889
2909471,-0.003554774314089224,0.0047018213944566055,-0.0030378623518734823,0.2954318159254722,0.16078133990918628,0.37742554722544747
2909493,-0.004750443446345651,0.0018382776729473044,-0.0012358334888173605,0.4239419509146151,0.09002488383049431,0.1252499004025583
2909515,-0.005050587738556687,-0.00245410952709337,0.0006643634676102845,0.46145502364855506,0.10826709051192802,-0.23585319582232409
2909537,-0.004182298153783302,-0.00548256516998149,0.0018066497820885524,0.33352335049014514,0.19217152661634765,-0.6192351683302673
2909559,-0.002349800290908729,-0.005308155462999827,0.0019542833555809725,0.06296957873836656,0.3137669169620914,-0.8691189612913381
2909581,-0.00046820952406243334,-0.0020932742823757114,0.0012475644603185563,-0.21455862430044872,0.45917520923376093,-0.8383697896838809
2909603,0.00025985375845454927,0.001759680847418499,0.00020637721128602648,-0.32241473743972326,0.6154712190333422,-0.5071618706036622
2909625,-0.00043208787566728364,0.0032671769160354056,-0.00046806784537699233,-0.18377726368427075,0.7556150484277459,-0.03347380190590275
2909647,-0.0012754335935350422,0.0013215926535782054,-0.0004941580458535526,0.0852328821423624,0.8371976035835949,0.34088152868821453
2909669,-0.0006594809888922421,-0.0022548250136300197,-0.0003783041988782372,0.25260131546296316,0.8149101899637452,0.47263663060195615
2909691,0.0013371948799340613,-0.004256051002223645,-0.0008645425671574644,0.17643148817691312,0.6667679244429081,0.4186744425873595
2909713,0.002476257100838456,-0.0029103344477856507,-0.0018455967259701244,-0.06714331561163953,0.42975697053802164,0.3470732860399214
2909735,0.0005995546702753002,0.0006991430213371697,-0.0021417695747422646,-0.27167272948205384,0.218732974226525,0.356416590280623
2909757,-0.0035419674641376463,0.0038367312351046583,-0.0007941059107679364,-0.2968480358257614,0.18048199918677982,0.40564148689472085
2909779,-0.006509923693858687,0.004533439616076899,0.0015857510422781186,-0.161672498843947,0.3741677561071219,0.408393958687526
2909801,-0.005806412924961011,0.0029387675703543632,0.0032618210726055087,0.024182025934575663,0.6818437695353085,0.3475905336013838
2909823,-0.002565267542907322,0.0007825956870368658,0.003104556832022872,0.16923179222773954,0.8872277887335149,0.279303100976393
2909845,0.00020450396005840173,-0.0001499120252144077,0.0013858144840564704,0.23928093593499983,0.8815824710314862,0.2605873177980295
2909867,0.0013040673925635057,0.0007584484570513835,-0.0009665901668287708,0.2410687664788182,0.7556415233281776,0.30025483086549454
2909889,0.0019751875472011635,0.0027165794897861524,-0.003102845122267772,0.21061532594345056,0.6541380036668865,0.3566799932991215
2909911,0.0032847915886545865,0.004221644017514862,-0.004197386315038747,0.20841379503014457,0.5948931522711426,0.36247326600621343
2909933,0.004475552570946332,0.004132267166006206,-0.003581090650852101,0.2836539251821069,0.4945430425535052,0.27448574153462096
2909955,0.004246122106514458,0.00238537395579224,-0.0014261489197489167,0.41744222508769685,0.33006366734043435,0.1238816964810542
2909977,0.0026135301433629853,-9.689165324644375e-05,0.00109305197657984,0.5153440281443746,0.18943074822395853,0.0034369142263077877
2909999,0.000922668667849196,-0.002186820114420457,0.002647909036140124,0.48510493263763643,0.15896127699374354,-0.013854508939029661
2910021,0.00040982931685083025,-0.003379137989132087,0.0026668077039392994,0.32872079188152376,0.22159652495743914,0.06449889749253186
2910043,0.0011136239032696969,-0.003937258484491105,0.0014973707658149013,0.14161282144314857,0.29017921226732335,0.18180296795572443
2910065,0.0020043507109346026,-0.004195725628434698,1.934387613193723e-05,0.015397920029213844,0.30468737868748846,0.30469722174378
2910087,0.0019052719119617902,-0.0037891621825380524,-0.0009063568826560293,-0.040337929521372565,0.26827117338695083,0.43091583260691785
2910109,0.00037402632354925327,-0.0018690280612967043,-0.0010020393586989231,-0.07061125953238577,0.21106787667223537,0.5227824961000509
2910131,-0.001982006057084089,0.00164755803811145,-0.0007629999158220668,-0.09439075402663552,0.15667510659859166,0.47462637453889744
2910153,-0.0037848959911571767,0.0051560360228095695,-0.0009075014537771514,-0.08353149123294443,0.12776988799487388,0.1934069758748748
2910175,-0.003538217778981132,0.006164657964957691,-0.0015552209173967596,-0.022973566570200735,0.1577703367204667,-0.27374719262243485
2910197,-0.0005516778851145274,0.0035065267329803043,-0.0020632840299373693,0.037981309989247994,0.26902655837086176,-0.7108756550255946
2910219,0.004132877065627484,-0.0011043955348476666,-0.0017214071937666088,0.022591279185853547,0.42914494877821546,-0.8674344043980095
2910241,0.007801803766402891,-0.004027888152358774,-0.0005799246846675938,-0.08186167196885374,0.5451079245139266,-0.6596611624492081
2910263,0.00793312772136933,-0.00269169934660162,0.0004160610236049334,-0.186130372665435,0.5306435738649777,-0.25903206873272727
2910285,0.004633823573169817,0.002037483394627398,0.0002274356642014235,-0.16840340027093273,0.38463111477605666,0.028755841231864407
2910307,0.0008066418033946996,0.006406888094859986,-0.0011478565168330723,0.013611981475390804,0.17587342632115127,-0.0006853191451146844
2910329,-0.0007427891553292293,0.0068811505674187,-0.0023972705253008132,0.2738559122309869,-0.05214328701412211,-0.30574324301005373
2910351,-5.1686745148349334e-05,0.0030957608307647707,-0.0020561963993155764,0.4499207300039093,-0.31012270892411614,-0.6582576227237925
2910373,0.0006817280621542289,-0.001911293551384031,-6.638205504890768e-05,0.41515294770257843,-0.5689839601383281,-0.8294121811266338
2910395,-7.41828918255382e-05,-0.004394749610276506,0.0020578399992234545,0.17888471261029026,-0.6980315228671377,-0.7361347118746148
2910417,-0.001973364008117686,-0.003089577246057165,0.0028014884885722868,-0.10320308407226618,-0.573594010075698,-0.45702217364296494
2910439,-0.0039782734612255795,6.778232285201065e-05,0.0021786861728440555,-0.24164236807758793,-0.24125771934490428,-0.14854278740740998
2910461,-0.005541523007567019,0.0021912497670626475,0.0014102672241528681,-0.16600539069969286,0.09241609980591599,0.061281104864564964
2910483,-0.006474528470648457,0.00214908928230109,0.0012923769636710308,0.0286039400717074,0.25302841907833457,0.14627824090000735
2910505,-0.006568151910025102,0.0010594694850431302,0.0013851766462024502,0.18503650376856515,0.25716300062007025,0.1852193258929352
2910527,-0.005767187285484436,0.0006052084570359553,0.0008098434365810304,0.22227694149009555,0.2598204204806301,0.2773307283398877
2910549,-0.004322150938673879,0.001302443522763788,-0.0006143702607659219,0.1751961857014186,0.35938369967038225,0.4278945387835797
2910571,-0.0026296531487930933,0.0023146848375857434,-0.002131244858985813,0.12694948619911323,0.4860150857517304,0.528276795977188
2910593,-0.0012325623063763815,0.002518744366777423,-0.0026627966566884036,0.12313294418644882,0.4959748284582643,0.4752204830890992
2910615,-0.0008182006636441262,0.001585852618302508,-0.001660649506389867,0.13962443384787343,0.3503929354210411,0.2974019799909083
2910637,-0.001612896890999597,0.0003138087935755245,0.0003816848480089856,0.11469283928741915,0.1634091500476325,0.1295934218303002
2910659,-0.0027344860545981515,0.00010484648172743961,0.0021951503517554432,0.023414836171182257,0.07815423630603789,0.06599315192827991
2910681,-0.0027029725016117266,0.0017352565813056268,0.00266438718947879,-0.05965943976251776,0.13488990469414774,0.07530328621639629
2910703,-0.0008731224844870831,0.004163876031264154,0.0016432197495178593,0.003964626390342682,0.2661017214287734,0.06695110663698943
2910725,0.0018085263520751114,0.004884914412028198,-1.5495118565601415e-05,0.2668480839759878,0.3750690885265957,0.007658473992783155
2910747,0.003563173944245854,0.0023264264858528488,-0.0011801215055017534,0.5795342546881302,0.39473288487643743,-0.053046532150634214
2910769,0.0032390970069461024,-0.0019503669323649643,-0.0013291328545345915,0.6822760175006877,0.3048941202250971,-0.06687081317983591
2910791,0.0011076587132168672,-0.004203578049725384,-0.0008700911117240197,0.45073005980518865,0.13259824505688253,-0.07562627203381338
2910813,-0.0015643263037166796,-0.002155734141238893,-0.0005422443515683906,0.03205301966905054,-0.059559751571710326,-0.1945251080505096
2910835,-0.0035174330800510764,0.0025910577620458703,-0.0005291579847832669,-0.28366379204385817,-0.19321779233131445,-0.48826987923320614
2910857,-0.004061730843533861,0.006041266758308259,-0.0003500033817394703,-0.3166475313311763,-0.19567200216977032,-0.8646441351939341
2910879,-0.003070348907726887,0.005516829821974351,0.0003678831127974771,-0.12070870445399633,-0.035762205226290325,-1.115437327040779
2910901,-0.0009375157967885195,0.0018068585915082048,0.0012236308405920682,0.11305926076321332,0.24001405516145416,-1.0806049326761178
2910923,0.0015019179606187278,-0.002015893918698581,0.0012435703365051359,0.23923973109271732,0.5249669043946827,-0.7704389073830225
2910945,0.0033396292248080886,-0.0035098220716352022,-0.0001887723399020958,0.24349478381806824,0.7183032478539245,-0.3366935724292201
2910967,0.003824709000350189,-0.0026273282843792666,-0.002393597790817991,0.18505592212780528,0.7615520518824884,0.04746386953450408
2910989,0.0022118927891646403,-0.0010766456453031603,-0.003438395061074316,0.10435341263149397,0.6237022606202245,0.27956028453352133
2911011,-0.0019976459937333245,-0.0004274497464461057,-0.0016397048282435166,0.0018463577162436736,0.30081911371360803,0.34970955356350036
2911033,-0.008168498482544405,-0.0008297502464124424,0.002633114402623446,-0.12362653247381478,-0.14782246580492145,0.320148709163418
