timestamp,ax,ay,az,gx,gy,gz
2930085,0.0008673050796902878,0.0006472706180072589,0.0033421996147477025,0.01670357228006931,-0.2288557372296536,-0.1691993680192406
2930107,5.010406469368603e-05,-0.0026211142103808494,0.004173025093220357,-0.04132567628350609,-0.23722603261970107,0.011724307749788221
2930129,-0.0017709433760139523,-0.0031383559634021512,0.003539927483540797,-0.07213705687393555,-0.2720912840826455,-0.05750154296277579
2930151,-0.0037858650998504116,-0.001114658803093024,0.0012671931052825045,-0.042649833377363756,-0.25163191461636886,-0.32110172854096236
2930173,-0.003960181463903264,0.0007851900501568265,-0.0014222364434059887,0.046263407653552815,-0.07270515863042508,-0.46282664920332023
2930195,-0.001484592585924998,0.0007137111959769999,-0.0030349367521384607,0.12790336802110822,0.21711462342071455,-0.25019680697114477
2930217,0.0019161778670956527,-0.0003117062258671397,-0.0030842975418911888,0.12202930217834408,0.4146276339901072,0.1994056621745871
2930239,0.0035701012802223354,1.8334608322330596e-05,-0.0023173345242098685,0.027630656557922507,0.34884030327357807,0.5027069818576795
2930261,0.0025175584124537144,0.0022479590224908515,-0.0017456387959286755,-0.07096395640742048,0.04194654838214605,0.34694567720206876
2930283,0.00016668762162517733,0.004434092732572965,-0.0015515432523779333,-0.1057593159078131,-0.31789612574222503,-0.2402573633299953
2930305,-0.001548093244562706,0.004460047151907587,-0.0010777330612450145,-0.10149259946818642,-0.5324750094727052,-0.9133621775415594
2930327,-0.002098257203974591,0.002446254908278792,0.00010083260897895523,-0.12492354177336978,-0.5214569058173786,-1.2897875271177464
2930349,-0.0022163952464452044,0.0005416816340120338,0.001321938506209137,-0.17925953608981124,-0.335548177320015,-1.2444964431310068
2930371,-0.0022649879353055626,0.0005654702127211163,0.0013130176160663846,-0.18612549692786443,-0.08456163863280967,-0.9635353106467142
2930393,-0.0015374139136983794,0.002143447290527319,-0.0004451477429833832,-0.08034242597753803,0.13132042115778922,-0.7245891632255617
2930415,0.0005172267128861152,0.0031670051608044462,-0.0029980475101806024,0.09660719318031964,0.24235494284425652,-0.637133657047267
2930437,0.0029533161539842794,0.002006930340089481,-0.004651757358454395,0.21322730185437327,0.21358009026670274,-0.5957435591786442
2930459,0.003893323332224601,-0.0006410568834203232,-0.0043514628547391115,0.15984993254282517,0.06030116190991875,-0.45526976424054577
2930481,0.002417756860994049,-0.002089511341821353,-0.0023544080555942515,-0.049401638986668495,-0.14956027408478167,-0.2129297675949714
2930503,-0.00044969681908358554,-0.00020298983426479916,0.0001637404752348163,-0.2706609240533624,-0.32473525967625544,-0.009396450674449927
2930525,-0.002693348378302966,0.004039098730592826,0.0019443161674325318,-0.33263304851354564,-0.38945271439395995,0.029577739786294212
2930547,-0.003103159670939629,0.0068963409588880175,0.002329874140076461,-0.18345427975775566,-0.31074509866552313,-0.07240681010828415
2930569,-0.002093262028568456,0.005469612082872382,0.00154741600715567,0.04188501143826436,-0.11297738576819724,-0.1744358414892666
2930591,-0.000873204999664778,0.0008598384384982528,0.00041787953084981367,0.12639454941882228,0.12824354953068842,-0.16597568838188584
2930613,-8.782807606520015e-05,-0.002859349344804788,-0.00041107351327392995,-0.0246355165709428,0.3232793435710179,-0.05788881879530949
2930635,0.0005285615843624442,-0.0027017627356573258,-0.0010429560130761541,-0.2863251954285203,0.4154917418148318,0.06256150612002097
2930657,0.001294061947427077,0.0007489061820291839,-0.002006417392303867,-0.4317242975732325,0.3982202733774007,0.12748133690628297
2930679,0.001777859744181227,0.0046143404553623925,-0.0032798400140499192,-0.3385150767600341,0.2978110263322161,0.12848178728925347
2930701,0.0011707016716903489,0.0065502858968076744,-0.003900952687613985,-0.07625789506584492,0.15471147451032546,0.09450821159014323
2930723,-0.0006571775093151198,0.00613423040985263,-0.0028569068870358027,0.18449780862040396,0.01290338685770793,0.05591007939598328
2930745,-0.0029090387047538114,0.0043043806575779366,-0.0003076757833061689,0.3163493134420888,-0.09818921211832089,0.018505184554810587
2930767,-0.004749077795482711,0.002255833042330182,0.0023270200858463925,0.29635256473415306,-0.17325289530436083,-0.041485743081048146
2930789,-0.005914322765885902,0.0008185381196446808,0.003529402443683173,0.17932084427788572,-0.19953292424265814,-0.13927231043926275
2930811,-0.006194485556047754,0.00019598010044023418,0.0028283997821827735,0.05305534744194862,-0.12558956425167425,-0.22315620330526267
2930833,-0.004977865639590975,-9.46723224798882e-05,0.0009114810970332172,-0.004188564786817422,0.0868469968800189,-0.1842890537158961
2930855,-0.002078893792842704,-0.0006726567505604844,-0.0011165672446395575,0.02283524097241597,0.36356079838683464,0.033289404787454416
2930877,0.0012299486185456219,-0.001312664398525892,-0.002500872425137465,0.06385141224593249,0.5234862082184965,0.33046558643568646
2930899,0.002807280296953232,-0.0008765776422066622,-0.0030458495009416334,0.026363398724210833,0.43454509229930466,0.48883824033143486
2930921,0.0014491682829113972,0.0012384959359193716,-0.0028295232966319608,-0.10212834057216953,0.1569349114951203,0.334577774151022
2930943,-0.0021431228123295824,0.003809334387519979,-0.0019584105566884573,-0.2316299754711181,-0.09717120547454045,-0.11297717780238699
2930965,-0.006031994222083869,0.0046236134073973575,-0.0006696353946633123,-0.2625379128063068,-0.15377640578329144,-0.6463280373567128
2930987,-0.008341656364370861,0.002776970765527179,0.0005451046951171849,-0.19211983474761352,-0.024494293406626056,-1.0334560314735526
2931009,-0.008160433835994308,-0.00026398109487911297,0.0011368362107466862,-0.11555986612692376,0.13252691841851233,-1.1834188122318006
2931031,-0.005832216657016912,-0.002103605616366861,0.0008019764346955483,-0.12302149127401331,0.1915262472743191,-1.1408483100764477
2931053,-0.0026484043713082923,-0.00166965429138374,-0.00041552256101454063,-0.20759602364932206,0.18329096612656254,-0.9465522892176235
2931075,-3.7000314038132336e-05,0.00014200482738632188,-0.0021362432625789043,-0.27959568258749673,0.22711272822075818,-0.5878595228910002
2931097,0.0012315832785349055,0.0017727686638587497,-0.003685659759335651,-0.2653593635834019,0.3576740988177716,-0.11853564867014557
2931119,0.0012492145366858123,0.0025804377133163375,-0.004335705922384941,-0.18504111758083078,0.46356568107750706,0.26106228473794624
2931141,0.0005554022909707074,0.0031328109365837136,-0.003709739847764881,-0.1283590355688321,0.4103740385880781,0.3407167470244141
2931163,-0.0004446575720068914,0.004165754790825457,-0.002003212761956059,-0.15248329205347702,0.18494839506501023,0.09986611943207575
2931185,-0.0016808620097897228,0.005414569351286803,0.00010136653496543461,-0.21375799572795395,-0.10794023208776815,-0.29248898734903617
2931207,-0.003046901916912116,0.005637844305529297,0.0016859524538882218,-0.21395479366056233,-0.34611502721622334,-0.6502006532928727
2931229,-0.003932510569627178,0.003938305892611668,0.001974726722718699,-0.11026621237152914,-0.43770614554653675,-0.8688445585652614
2931251,-0.003411275110241387,0.0009442317378354193,0.0007494984748303871,0.03816953807376472,-0.322597777966522,-0.8882762247109757
2931273,-0.0012350260533562077,-0.0015416737227088332,-0.0014702313053004594,0.13273204816061104,-0.03516834354479652,-0.6877787808643285
2931295,0.00133492444531642,-0.0020342451248613587,-0.0036175186123823385,0.12379386696184207,0.23554696090511712,-0.3615286749459248
2931317,0.0022310494525089562,-0.0004509530073929986,-0.004579803943771754,0.03744580183317812,0.2730316544108087,-0.09895440450690415
2931339,0.0006697511005084229,0.0019778697351960145,-0.003871338607216414,-0.05784011864858939,0.08288137278197975,-0.0058135803684610625
2931361,-0.0016826604886343748,0.0035863491229801148,-0.0020338926173252923,-0.10195104739292477,-0.06848561475802041,0.01685103108356531
2931383,-0.0022906880207333893,0.003381236961191226,-0.00026798697452981194,-0.08414285254539254,0.05806441877846522,0.1504792198732453
2931405,-0.0005548299650781988,0.0019005947464151025,0.00045901346328926197,-0.04873089081320345,0.39357745928574117,0.43297579650620094
2931427,0.0015053452394209613,0.0010396253892672857,-2.307597917676333e-05,-0.04648693060917475,0.637720106870967,0.7046857100271704
2931449,0.0015790461872755113,0.002418687182795084,-0.0012510146711310602,-0.06643544071842936,0.5908452637971567,0.7700084259412365
2931471,-0.00032110497807152325,0.005485579196720687,-0.002638231554984664,-0.02911184658620267,0.3410102138934743,0.5687802272735124
2931493,-0.001933158819520891,0.007534223852931976,-0.003768657884570013,0.12617063309371607,0.1202890353075393,0.19796561073809077
2931515,-0.0013241500627141126,0.006146913277211001,-0.004311744019328085,0.34460193892982116,0.044945258641981574,-0.17232568766548934
2931537,0.0009589809691301368,0.0017222775083826464,-0.003913661402830642,0.47336904325432794,0.04351698500469332,-0.38192711550428815
2931559,0.002459007977593814,-0.0026711060094983833,-0.002435810328384566,0.3994749543811053,0.0045940861808443124,-0.34916804855971184
2931581,0.0013640009993317365,-0.004088408878048327,-0.00031875199777522164,0.16491544634732996,-0.07782757371847787,-0.143283814891006
2931603,-0.001671227434613827,-0.002242174192985202,0.0014753825470034186,-0.07336531394815686,-0.12469174940125431,0.01460111672134548
2931625,-0.004249367587726919,0.0007836007588830221,0.002043301098561609,-0.19443037736510888,-0.08772661072903812,-0.08824746075342467
2931647,-0.004673288272050209,0.002930868747332737,0.0011944217083891921,-0.19925112997097447,-0.0009753022281662337,-0.4370274498360736
2931669,-0.0035068665740184937,0.0037109401312120103,-0.00034975487598507243,-0.14563213250907525,0.07422868251184538,-0.7688683631367603
2931691,-0.0025964335217763686,0.0035027811302644142,-0.0014645798991711968,-0.047720698555119775,0.12205301517887544,-0.8285827258095095
2931713,-0.0027263383125639986,0.002288528327011852,-0.0015528736846918288,0.11091376629783602,0.17666343351935615,-0.6297621637322479
2931735,-0.00266221964061235,-0.00019660686585858074,-0.00101287172882017,0.28569276194782206,0.2683382271155528,-0.40692370022413865
2931757,-0.0007353016755181805,-0.003357322220321761,-0.0006085181945061722,0.3601355258390776,0.38213093046170094,-0.3129389691222012
2931779,0.0028459651733352643,-0.005484322688550021,-0.0004366072876718559,0.25385748029288385,0.4665552894018204,-0.2404072769125496
2931801,0.0056262508202194125,-0.004911717466631797,0.00012218181201115123,0.014120791497520485,0.4639577472972699,0.004284727882275199
2931823,0.004973517349423671,-0.0014868970992943107,0.0013600000138568069,-0.21903844786733795,0.32833375137518606,0.3958940663196463
2931845,0.0004557358918556353,0.002989273410537542,0.0026165656542679883,-0.32525154714274096,0.04645810626611505,0.6536659738797655
2931867,-0.005828300814412076,0.00584080503283065,0.0030792393932832906,-0.2787496636764705,-0.3118274797126541,0.5418744320817924
2931889,-0.010986370234178465,0.00539631284375403,0.002904931470298686,-0.13941178907429655,-0.5579543861058622,0.1531521787175975
2931911,-0.013055204251359299,0.0021738764508327573,0.0029062836431678852,0.006027101897881894,-0.4595332173729159,-0.16447789325030354
2931933,-0.011372543751172979,-0.0015105751706655768,0.003078912882846475,0.09578247959579458,0.05811337230308708,-0.15888674283975673
2931955,-0.006468452915850312,-0.0029264793836417387,0.002140413690206799,0.10610351252167075,0.7450376597526022,0.07592486520008657
2931977,-0.00029826534374420756,-0.00033389091700249866,-0.0009565717472092766,0.04305052470786802,1.1227129884212634,0.2006228672213863
2931999,0.004284954228390377,0.005819307502572656,-0.005327957631909864,-0.05132693491418536,0.8602947697722829,-0.02796797242528909
2932021,0.0055818665573743,0.012254311494834132,-0.008460949624236658,-0.08712545115031212,0.115578457427963,-0.5020759736628174
2932043,0.004618875013129522,0.014020382627707466,-0.008216816562614845,0.04528394622147444,-0.534790270633551,-0.8346575354259547
2932065,0.0038778513866770544,0.007881638948831815,-0.004334541183343139,0.40045926448407565,-0.5857987235673205,-0.7051904866573331
2932087,0.0043889321221106,-0.004455717200186932,0.001737520354731283,0.9167309785371884,-0.07611036319162238,-0.16979111426357957
