timestamp,ax,ay,az,gx,gy,gz
2353135,0.02684391586259811,-0.0012315293968040298,-0.018747283170741477,0.5720346986083857,1.2746573926077995,0.3272211147366999
2353157,0.005841183954705796,-0.013891662468515418,-0.00968535031081527,-0.6052457560027888,-0.4647343008106889,-0.3637964676602946
2353179,-0.012482930143324838,-0.01369691617559661,0.00019379823947735983,-1.6005925505829153,-1.4346181560976616,-0.5963438834807451
2353201,-0.02193520117896229,0.001066353312614359,0.008077993653881479,-1.96370768357292,-1.2765751032788895,-0.28130802646166625
2353223,-0.016947933642289713,0.01875702134417952,0.00958037174787007,-1.2696969234711433,-0.28614440435795274,0.25575544085316393
2353245,-0.0007031256635698988,0.02406974118303654,0.004372585298034244,0.27522902184751963,0.7352303635789325,0.5753063532062807
2353267,0.013945072060399731,0.012241876691676049,-0.0019168866058531186,1.7174767304146148,1.0529905277000977,0.4827837164597759
2353289,0.014656382940418254,-0.005702146479910573,-0.0025989604024908414,2.0378918179984495,0.5917932878868387,0.13955601372503657
2353311,0.0011575577429095985,-0.01271005946329319,0.0035611847546526336,1.0029934467895545,-0.015007734793710627,-0.13092028186141
2353333,-0.014289784937847853,-0.0013081636578544768,0.01133592340068186,-0.6503069785392936,-0.013730800886000302,-0.15303240262062834
2353355,-0.01821964920550718,0.020163821626755302,0.01434832960399356,-1.8314672430080732,0.7902235405522956,-0.06298168822506503
2353377,-0.0075932173393472805,0.036049192138115686,0.010797443393581413,-1.9170061755748766,1.8939587012433448,-0.1739324292158456
2353399,0.009151404790884396,0.03733563687106862,0.003988100450231502,-1.102322999631182,2.576386657070083,-0.6441962727267956
2353421,0.02107235819230183,0.02754088062062381,-0.001814392076344677,-0.09629816427528182,2.4910067453609503,-1.274097501426626
2353443,0.02376400658653523,0.01643973533704573,-0.005090006161289678,0.48104248893068074,1.834455482279546,-1.670755853366139
2353465,0.02029197090503562,0.0099849765648385,-0.006847754906464818,0.4644765313828995,1.03649400152591,-1.6320696955872998
2353487,0.015443155288316534,0.006880356637888896,-0.007969065467872108,0.05538974609366916,0.37572003315285063,-1.335411631792234
2353509,0.010873625103246375,0.003133377687448018,-0.007705509602079374,-0.4850933547650342,-0.10646139672616677,-1.1149656089509568
2353531,0.005508562682554532,-0.002458388159965944,-0.004580999001792084,-1.0235754267975812,-0.4269000302992898,-1.0801804961019952
2353553,-0.0013245293366751871,-0.00755447094380523,0.001903236673137543,-1.5563120607572367,-0.5151036488719504,-1.040015734567669
2353575,-0.008390546816069345,-0.009235302247110118,0.010474747386397205,-2.1654663616572436,-0.2657043163065786,-0.8669021698436944
2353597,-0.013463195392334325,-0.006923478497474989,0.018378633815563324,-2.9771307431940155,0.32707658964964664,-0.8535652651783262
2353619,-0.014637250777808499,-0.003679250279505802,0.022260414224032802,-4.048434816424014,1.1398165007859409,-1.4608005224325025
2353641,-0.010969212161341347,-0.005675870728932086,0.01965384713712938,-5.227690260010161,2.0155599449119217,-2.4987492510984954
2353663,-0.002968478886177816,-0.018973664885233898,0.010850848845991452,-6.206419858774061,2.855423139011741,-2.6884025905537996
2353685,0.00727796379624229,-0.044074444032848666,-0.0005952770796189941,-6.870760001503252,3.6078174179901126,-0.5501014394000716
2353707,0.017305624715418726,-0.07231472591707,-0.010421609784666696,-7.663976036324823,4.172891643654045,3.8169176341947204
2353729,0.025829064352945165,-0.08861886810469233,-0.017441891380885838,-9.445381505789207,4.306969583712321,7.97221971336392
2353751,0.03228067462433507,-0.0802161794426573,-0.024044428175357156,-12.712832693886991,3.6419136803886984,8.801718765706811
2353773,0.03471530693629841,-0.04530817502144739,-0.032071076371256134,-16.80085176910524,1.915914610685463,5.501309152096941
2353795,0.02977509886323533,0.004719679346854844,-0.03873381114692904,-19.930906748227827,-0.6670504736563612,0.9101602256624495
2353817,0.01646638131744935,0.051091706005231816,-0.03797079379117768,-20.350734899419646,-3.2871933951514856,-0.5564751617714119
2353839,-0.0002045615530870652,0.07801040460089267,-0.026548679640655513,-17.782378439371975,-4.876543234972095,3.2094522118532067
2353861,-0.011508784823798484,0.08175780812096506,-0.00839723999487262,-13.895182158518237,-4.843433347890679,9.963459729312106
2353883,-0.012877896150096877,0.07223360557366898,0.007951229128870767,-11.126844900045787,-3.5130016685296,15.050042759607283
2353905,-0.009207604630786794,0.064327736233366,0.016552765551974723,-10.70051210895442,-1.778198997156276,15.607481319320476
2353927,-0.010211445205700987,0.06546077883060336,0.018370378440872158,-11.72889428817328,-0.23754043961955987,12.94545050325878
2353949,-0.01924504047724458,0.07119507858116526,0.01835055038627729,-12.366919187732595,1.278042757939343,10.814185741886767
2353971,-0.027858890820031068,0.07364797488484083,0.019024730195815874,-11.762195319379227,3.2347366172709315,11.518871515117551
2353993,-0.023651651396804488,0.0733325773106346,0.018045157104033763,-10.640106358882544,5.500391422628587,13.938153450220028
2354015,-0.004490652502995081,0.08029421264365495,0.012073028203350877,-9.95005544869487,7.127955440022571,15.26079234673952
2354037,0.016291428836187838,0.10172066782388514,0.001987462890244004,-9.26971397994958,7.244060247879555,14.260868678463096
2354059,0.021105411586342725,0.12865913661074854,-0.006711706316015915,-6.9592058214422226,6.172428607807482,12.532647470675224
2354081,0.005602694050985347,0.1369160501992393,-0.008384389070768456,-2.0394546199792987,5.431304966187867,12.58558940767162
2354103,-0.01605897491892255,0.10449808778242121,-0.0015090870654078828,4.206105818563081,6.307606719163304,15.124924474094396
2354125,-0.024724254194599827,0.03250521454558078,0.010733870142707025,8.696901741926414,8.434818089452149,18.500032740693083
2354147,-0.01400272813044976,-0.04977837834605468,0.02253311430426657,8.863483314889177,10.126832187498762,20.706496684022735
2354169,0.007108541588321684,-0.10442839492106211,0.028315588911850337,4.701701486620434,10.255591401772405,21.496706265506887
2354191,0.026965524191763235,-0.11391937995803228,0.025933545865121636,-1.5413743616547582,9.394377122351582,22.178569671564187
2354213,0.041215430601763116,-0.09047021011388547,0.018547979546179604,-7.87254080434598,8.75545365240591,23.39855827554198
2354235,0.049334884533349596,-0.055128996633889094,0.0120798882112758,-14.345930791247229,8.398174065704234,23.57035882438672
2354257,0.04807727947191076,-0.011988902503991546,0.00884471698577394,-21.5048421179182,7.260980120835147,20.116207488288875
2354279,0.035146199396934794,0.04836392279256059,0.004297138222140549,-26.99139979539511,5.11247880119944,12.695049951989708
2354301,0.018696762659112184,0.11914519737480826,-0.007523709465660845,-25.418460543331967,3.702485670278353,4.903389800130641
2354323,0.01614544484797749,0.16546889703307346,-0.02504622244853253,-13.759957657278694,5.060564422560074,1.7471332363477234
2354345,0.03705521393739361,0.1583827308051389,-0.038445572799753296,3.177841231717032,8.585871581937582,4.713308169275045
2354367,0.06798945190505773,0.1174647155237562,-0.0398117240572826,15.044482303057176,10.773265458376754,9.83567575565382
2354389,0.08216812641987979,0.09916947851573958,-0.032386383605760745,15.344089221190695,8.722042156254203,11.62646286957018
2354411,0.06911082488672199,0.13387195336612448,-0.027023785691654173,7.702898009515872,3.619046414116745,8.987609205620174
2354433,0.04937157249055839,0.18863298869150913,-0.029584619006591234,1.5401452483042242,-0.28838896142540305,6.342936088147991
2354455,0.0521587955292681,0.20567800031147493,-0.03420809516405958,2.1297404956670367,-0.3729082011651641,8.47659323146283
2354477,0.08049383469057625,0.1698485912236572,-0.030318063530585356,6.288297648910192,1.637599527455023,14.960563125517513
2354499,0.10725161981290533,0.12313777395555138,-0.014997325239412374,7.5761449468381565,2.1160334134510985,20.5279090496912
2354521,0.10707380017773666,0.11402919067285847,0.0034899155873438815,3.8723342786087667,-0.08839897779005318,20.72884177104479
2354543,0.08395574842753417,0.14719229600228764,0.014371021260882032,-1.266216881769314,-2.7210560637434122,16.29682737485071
2354565,0.06226175502894877,0.1889194537728407,0.014475825113954965,-3.611048114990495,-3.2342835658859412,11.655011234877625
2354587,0.056645929712410024,0.21034656851201491,0.008718771296288378,-2.743181876928585,-1.624448576448424,9.914062294113126
2354609,0.0593577334961227,0.2118140958710942,0.002658153933591261,-1.289553779445394,0.19323766542041895,10.19079224475742
2354631,0.05605976295590521,0.20740228927841514,-0.0026457010870379804,-1.1782048498047173,0.9218061239376767,9.60105611047173
2354653,0.0453446248508357,0.20076672266296441,-0.008795636910373376,-1.869488913718794,0.9629236168927381,6.7797221424231555
2354675,0.0380819141038299,0.18482039085359608,-0.016032767544609656,-1.9023924971685144,1.2554569505608422,2.8633540201973755
2354697,0.041807457051111725,0.15837153697060746,-0.022442550923562267,-0.9653228987266078,1.8544996143898236,-0.35327114289158895
2354719,0.051594050570831454,0.13212883381560206,-0.025937047886756458,0.050619285540689146,1.943148882395795,-2.295116473226548
2354741,0.05647149689773477,0.11684485429890741,-0.02581232103207897,0.4503739065829416,0.9017300682297812,-3.5621977127851108
2354763,0.05125156149854745,0.11162009209962749,-0.02273747187772622,0.49864249861350735,-0.9566643111217878,-4.658553037060321
2354785,0.04042610095154216,0.10678697355051697,-0.017951173814766193,0.8226398272331119,-2.6630642448715496,-5.290337851556223
2354807,0.031954469720468136,0.09553286555325667,-0.012437547956411126,1.5023356349244177,-3.436682351983911,-4.955116343016059
2354829,0.02917030206478385,0.08064449274526445,-0.006643649568869058,1.9650991453197122,-3.2567022760923003,-3.9896232892005012
2354851,0.029264933913599786,0.07139997374672616,-0.0010393416049054314,1.679558647019839,-2.7436695318924182,-3.7809100035954253
2354873,0.02836450175652515,0.07514037217380155,0.0031671542088535522,0.8350849805970573,-2.6028216296681435,-5.721036815820218
2354895,0.025899393458780787,0.09052386686367957,0.004352506383463285,0.2948171804733539,-3.144245679759158,-9.793913295108347
2354917,0.02351174813710913,0.10763259221256824,0.0018638372952129948,0.8267084359942491,-4.123270356897012,-14.174051143437918
2354939,0.022023678994165664,0.11551143572239952,-0.0031013183853906955,2.3334042077803296,-4.865899554978011,-16.37041954151392
2354961,0.021518714502398867,0.1110902786110402,-0.008401193182881175,3.8703422873457196,-4.670850435840611,-15.0329218342032
2354983,0.022940438145814847,0.1007994249777646,-0.012688092006537637,4.4885540582885035,-3.40176337007906,-10.909492659525704
2355005,0.026932205828184935,0.09284701922333725,-0.015811051793114053,4.066148612930242,-1.7873447656332864,-6.1967311418799955
2355027,0.03137704927855959,0.08853198501114322,-0.017576004883379483,3.2837561846820544,-0.9311938341061595,-2.933352980444493
2355049,0.03235032560112901,0.08278153000279675,-0.016936686733660455,2.826320344359463,-1.3434863605234884,-1.8017562367263407
2355071,0.02801557852258187,0.07332822037112172,-0.012940802040098764,2.703617275476663,-2.4803756043686924,-2.1204743696781603
2355093,0.020376757521730682,0.06649073123059923,-0.006024705857115338,2.3571668286281686,-3.2669374219237333,-2.6982731965405047
2355115,0.012802693818709032,0.07093099799330982,0.0022727106006183934,1.3175090674439205,-3.023024408441758,-2.7306901541364375
2355137,0.0065668723404422044,0.0864057117771102,0.010766092148719788,-0.3116110881110309,-1.9430278005146955,-2.199131679177251
