timestamp,ax,ay,az,gx,gy,gz
2289929,-0.006585379746392213,0.008979635054246109,-0.008153321076939673,-6.9083006506628735,-1.6793059194953324,-1.0872931437371711
2289951,-0.005484868623100442,0.017793299548890116,-3.45447254348106e-05,-5.238004820290366,-1.2540979544867183,-0.8132263975163517
2289973,-0.004799875500683273,0.01743506473971424,0.0072083299420594256,-3.618508476510539,-0.882601979792749,-0.8875682917086846
2289995,-0.004863359988305869,0.00906365149276931,0.012484227017283809,-2.1213257834365393,-0.5531375012430607,-1.2735075733207843
2290017,-0.0056682294898669355,0.0013486186302877358,0.014548162775492016,-0.708154948480165,-0.1951196284460801,-1.4867219863926442
2290039,-0.006282569489571199,-0.0008804374133867455,0.012366790602049003,0.831663869354259,0.25461944338691433,-0.9774495722246337
2290061,-0.0046483940498621154,-0.0016027702479603028,0.005661551427328067,2.648775036035699,0.7740056430394175,0.3085430725453113
2290083,0.001289436309645321,-0.007713929831299076,-0.004569728049431707,4.510697582475474,1.2075280214790094,1.7345078312976459
2290105,0.011461816345288516,-0.02110619382854242,-0.01586126943944451,5.777123495267613,1.2945567119009649,2.4114935243971227
2290127,0.022439036435910865,-0.03690852468000871,-0.02481078962611622,5.761111645759057,0.8046885874478276,1.9071982079922025
2290149,0.028738156759736504,-0.04717065015619438,-0.028438594112653006,4.223128858475029,-0.286126270145296,0.5535185017411748
2290171,0.026349323816146075,-0.04577925959141935,-0.02575663343378548,1.662884007320814,-1.7230117658234185,-0.924974074965903
2290193,0.01613494323001556,-0.032844041979170464,-0.01850340808386583,-0.8361055548732919,-3.0685897836924716,-2.031709180857525
2290215,0.0042318056721493864,-0.017133428321897865,-0.010460215061428814,-2.213964002106922,-3.887404863785545,-2.6967384840348023
2290237,-0.0016185468557788772,-0.01314472188626714,-0.005593160819724193,-2.1239550829598906,-3.93077125852802,-2.919614243872738
2290259,0.0024310849622032303,-0.03163924766348887,-0.005879084340140128,-1.1739639797551589,-3.3136091007843276,-2.417419281187479
2290281,0.013115183188046026,-0.06936295979771798,-0.010150231721177554,-0.5230261218484278,-2.5965926130533536,-0.8164643929047035
2290303,0.021859246792259392,-0.10770495738327417,-0.0151034325028476,-1.145910592196898,-2.5507965264576313,1.791701379616687
2290325,0.020967364306388597,-0.12471527081652457,-0.01796694908606752,-3.2644400053008216,-3.595630913112178,4.638956917854859
2290347,0.009842319623554575,-0.1123826316010378,-0.018448762854246917,-6.2493963057260045,-5.377365014492427,6.845788968898004
2290369,-0.004568680726708345,-0.08332857077683731,-0.018030482704138956,-9.006879619932509,-6.99136731334897,8.328967350450116
2290391,-0.014506057234428757,-0.05888609327609805,-0.017540469391169163,-10.649248951411018,-7.7104362890124145,9.992524395918695
2290413,-0.01894330333623125,-0.04903337432973172,-0.01590963846914464,-11.040904425565513,-7.5126837031548215,12.693059891425172
2290435,-0.023944223527856114,-0.045157554867618015,-0.011317396557204287,-10.708531021684893,-6.917591449932414,16.012430557577108
2290457,-0.03561374989829696,-0.03458752906176129,-0.0028595049948177908,-10.095056029519721,-6.367029762485045,18.477886915761182
2290479,-0.05326549329854098,-0.0200469221868026,0.009100598592992398,-9.029665889190998,-5.801732797172653,19.24713455880917
2290501,-0.06929668562072046,-0.01866235716778537,0.02324004516419152,-7.226176859020993,-4.791393547169213,19.29090863236093
2290523,-0.0751442691819022,-0.03986888915491498,0.03712645680965244,-5.208190307655051,-2.9859516851613233,20.5153802728474
2290545,-0.06786908244381419,-0.0699766666920154,0.047305842248688695,-4.217072624811194,-0.4419623045341894,23.66061565205893
2290567,-0.05228542699882657,-0.08428309869534711,0.05067669985698327,-4.878821922200611,2.3452553973934966,27.28192145181046
2290589,-0.03729460607265166,-0.07365228860399665,0.04646281226221665,-6.188225597054033,4.623054387950967,29.086921794073856
2290611,-0.02946867133058778,-0.05480955606788119,0.03692577155191519,-6.295367314241885,5.74921674725277,28.462616000786134
2290633,-0.028800882053930672,-0.051911274863725314,0.025668417748592673,-4.569901105931248,5.666283081091404,27.5212750939572
2290655,-0.02955605758839886,-0.06840673647657076,0.01457718724902861,-2.7274061464733785,5.029478019126383,29.10022660585707
2290677,-0.025481683397768205,-0.07947709079468179,0.0025614266235135237,-3.489968034915275,4.561453068097448,33.287729586699065
2290699,-0.01564533737396179,-0.055443897576128935,-0.011927462925837535,-7.846913805431702,4.149287281230535,36.22277614231832
2290721,-0.005974640682249823,0.005653450119161028,-0.027322011502703705,-13.673774075819964,2.9117940214406657,33.26371709667477
2290743,-0.004204827817981759,0.07037049598342177,-0.03907579964912035,-17.26018671638631,0.47487828498235624,23.938100661383427
2290765,-0.012324697838483124,0.09807373497520297,-0.043584472432849526,-16.410880880898862,-2.062668369889845,13.308298045116448
2290787,-0.024310778447655994,0.07833864406543556,-0.04092789746083974,-12.211719203049189,-2.9282774850333957,7.629363455618201
2290809,-0.03184909911288675,0.03944173095786261,-0.03371632137028964,-7.883627634097416,-1.511053531627254,8.668005432843337
2290831,-0.03181624274986079,0.021150698862065227,-0.02494764251684971,-5.988207306852518,0.943714317845127,12.898565666731141
2290853,-0.027781135315447816,0.04264387357401774,-0.017742618964074402,-6.585303027846149,2.638278331436497,16.04181996122647
2290875,-0.024986014716829836,0.09389374963142336,-0.015104974945629328,-7.610720558982339,3.012520862272974,17.168420338468593
2290897,-0.024486926314806815,0.14748255139881192,-0.01747232231870336,-6.7447518431744395,3.0663622276166866,17.955093486013332
2290919,-0.022069552266900855,0.17551137015755586,-0.020922534080298847,-3.347688367970934,4.0146300955527305,19.311263474120334
2290941,-0.013431088213653243,0.16645284629269488,-0.020228407717499192,0.7993081885892652,5.809448290402513,20.221501025545063
2290963,-0.000896856370112697,0.13557480929001114,-0.014596196835523122,2.7635361295893626,7.087039368359981,19.565818658520836
2290985,0.00669836648182406,0.1142926229897084,-0.00900882113190145,1.083784180275187,6.579504129322646,17.61497145571228
2291007,0.0028705611026426984,0.12080904083713039,-0.008956434908858203,-2.707739902608672,4.473387713413665,15.234361658217626
2291029,-0.008786570579821911,0.1425972265109011,-0.014784686740621025,-5.523176146257923,2.2450063087021297,12.530794260580057
2291051,-0.018035140173864928,0.15309560866804167,-0.022094544274815053,-5.719573470116998,1.2212453399377543,9.08420907540768
2291073,-0.018489998466755076,0.1429249620721033,-0.026834560733438255,-4.298435698457167,1.497377906474892,5.109143901102731
2291095,-0.012409765771909921,0.127404516761471,-0.028743737137517836,-3.1287355276126187,2.22977455393905,1.588452113904423
2291117,-0.005722462663340649,0.12363975689763466,-0.02994564005070586,-2.6437857484309815,2.6565074026135087,-0.7399275311674443
2291139,-0.0013415717176210396,0.1286509225338545,-0.03143348992282019,-1.8022231797753998,2.6203853678130953,-2.0109505429203653
2291161,0.001658446677328442,0.12517865229675307,-0.03183915472080609,0.048762808084642194,2.296244972252018,-2.797323278553758
2291183,0.004417961017308096,0.1045014057272693,-0.029396647563039502,2.0699750881952754,1.783312414664597,-3.4217205525728835
2291205,0.006098995245120305,0.0765206405738315,-0.02428639400595149,2.9055214157701164,1.098255919887615,-3.8138385735028844
2291227,0.005347143787894748,0.05766670095096168,-0.018771700709514016,2.268784331978025,0.3822580069646264,-3.8244471335657524
2291249,0.002497994428182448,0.054919778986813245,-0.015420218781970235,1.1532448849163708,-0.1084658266055028,-3.532985860315205
2291271,-0.000584080367798122,0.06347929828920877,-0.015296889108313814,0.6830265423051721,-0.23955349498944903,-3.283712675881694
2291293,-0.002592969773686513,0.07483751616905891,-0.017366187718360154,1.1689421319201698,-0.12323539882520818,-3.445514929067576
2291315,-0.004224452362639566,0.08308402918987368,-0.01928102711711825,2.261675253646385,0.02116915577381244,-4.110662240687258
2291337,-0.00739205516209958,0.08574110117607357,-0.019072910854750467,3.6092593158195836,0.07686902622526579,-5.062412144611302
2291359,-0.01282139577777183,0.0823990856505004,-0.016613692553658264,5.1127401788989095,0.09711876193985049,-6.054872891329543
2291381,-0.01830025325677578,0.0732012868736568,-0.013594982169674006,6.6647994183670125,0.2184705922893804,-6.9830061646005275
2291403,-0.01976850046797456,0.05839717462088931,-0.01198153681305661,7.873990168709848,0.5070282314973489,-7.670070345590129
2291425,-0.014913345210744302,0.04039937693489573,-0.01248973440646851,8.187839261785323,0.84106812353373,-7.700375992869986
2291447,-0.005912574066979576,0.02561151848712838,-0.014495133641265444,7.367784542599405,0.9574266459464589,-6.786197930669097
2291469,0.0018815187106410794,0.020708657524462038,-0.016881079598744957,5.844188012958776,0.6779230326941105,-5.277098581451826
2291491,0.004316285387868095,0.025376543819578202,-0.018452399167735556,4.466753306373076,0.08970453863440733,-3.991992327704548
2291513,0.0012045462326964495,0.03122749227652901,-0.01793145038709172,3.7753647145161584,-0.5500035681216229,-3.4280016306248267
2291535,-0.005027897155372742,0.03015056279965147,-0.01463979810811985,3.5602556759593904,-1.0596426701893074,-3.316562287429957
2291557,-0.011951568047744828,0.02243463903705564,-0.009600508904736576,3.2085673341160783,-1.4032685705542562,-3.052033887171209
2291579,-0.017664873230198178,0.01538928091965714,-0.005335422335634879,2.3788586258665956,-1.5597794033760963,-2.3980226475000577
2291601,-0.020448526645637326,0.01575300947953853,-0.004000858840313094,1.2398004052405176,-1.4735277089069545,-1.6511235977354926
2291623,-0.019819064006376914,0.024694545231060537,-0.005783516263475799,0.2057068492281555,-1.1679216607248841,-1.2050969469229065
2291645,-0.017464391795947536,0.037906139411001294,-0.009106605451575826,-0.36842129869430235,-0.7932821918869916,-1.0989435293351777
2291667,-0.015694806034129614,0.04846006888843334,-0.011977067898658657,-0.3435833257842228,-0.5096827820485035,-1.03514108399807
2291689,-0.015017132501181023,0.05137855557315404,-0.01306641906588134,0.1006260130407016,-0.3865486220250746,-0.798957113610594
2291711,-0.014176521224205207,0.047993803511336974,-0.012217105708521204,0.5333602830908553,-0.43016177763236674,-0.5701152219782365
2291733,-0.01249158392307135,0.04514783769412444,-0.010629486738391675,0.6569948569789441,-0.6162511025250992,-0.7186641751402659
2291755,-0.011085262803028158,0.04805339066272202,-0.010296250169823913,0.6777222924531375,-0.8430591253643412,-1.2808876108347873
2291777,-0.011321609811800356,0.05398706203451238,-0.012299218148052106,1.146952745520321,-0.9265820771160596,-1.7797988556836482
2291799,-0.012663060968946217,0.05436701984139236,-0.015321021124127277,2.345634168853907,-0.7386534649479322,-1.7091125496479636
2291821,-0.01295802845744646,0.04350184790323934,-0.016583244247420886,3.8632494994728326,-0.35557792273564076,-1.1293146486396104
2291843,-0.01104201624836857,0.02515429294069325,-0.014944900056968068,4.805075526015798,-0.022072366905077346,-0.6099230844262624
2291865,-0.008447408652607959,0.010402019265547591,-0.012625749818440257,4.400816597842189,0.044130292542708505,-0.6081238448196676
2291887,-0.007802064463431252,0.008271918886602418,-0.012942935383367363,2.4936345959539246,-0.20076366867340759,-1.1015915219741024
2291909,-0.009592601241706106,0.017311855083357534,-0.01636471677882767,-0.3766284941529745,-0.6388816077570081,-1.8187454934480405
