timestamp,ax,ay,az,gx,gy,gz
2240715,-0.005227543733495651,0.010348876566445885,-0.0009806521598776934,-1.902958664000535,-0.5588803684458349,0.2923086674672269
2240737,0.004950793340427369,0.004227560298550545,-0.004530930667840013,-0.20884351617770286,-0.45892954904918865,-0.1473209604668475
2240759,0.00778609049954551,-0.0011468649333377214,-0.004943416568948914,0.5898496371272781,-0.7116778203390491,-0.7894727517674933
2240781,0.0018224280090039587,-0.003982539085511892,-0.0016604580218661617,0.33735719845759377,-1.1108126145406627,-1.3805950151395745
2240803,-0.0072955387918965135,-0.003466895069145236,0.0031053638018660175,-0.3110828339591916,-1.0446222441819177,-1.3451342421341348
2240825,-0.011695177500974306,-0.0017153142930284972,0.00638753819694538,-0.5443449169454078,-0.21504422486034896,-0.4232887543386405
2240847,-0.008098146819243186,-0.0016001846132952797,0.00648877960321387,-0.12400103131843104,0.912614960609421,0.8654069245101438
2240869,3.976205671013902e-06,-0.0031941796607540306,0.0036174230600630303,0.5281027069837344,1.4915692198111998,1.5251891646321523
2240891,0.00658825952779599,-0.004263612547725092,-0.0005186547751647677,0.8771053540594627,1.1250666718435458,0.9800643786764826
2240913,0.008592953288146821,-0.003962750983892749,-0.0035750379979320778,0.7828053224412104,0.24246524781081918,-0.3078024435663439
2240935,0.007026744968530592,-0.003998066735877425,-0.0038311463757950007,0.47536845485462376,-0.37230064433885124,-1.1933500149163803
2240957,0.004059483960551837,-0.005882671962703938,-0.0013553437612370972,0.20335514954714082,-0.3538473101182288,-0.9051462339454095
2240979,0.0008169932940458769,-0.009000621125348449,0.0020029965502450222,0.03425004760073115,-0.013499133690904724,0.22602018838902427
2241001,-0.001802066012424536,-0.012437768510751837,0.004117468635551049,-0.06946451894672084,0.10965032815036146,1.1185516700721023
2241023,-0.0019273740608616791,-0.017277321602281036,0.004510721732217801,-0.14364991545470268,-0.1312007578498514,1.0645745740146408
2241045,0.0019230427164455722,-0.025064078031067628,0.005079390998236364,-0.2569062152977818,-0.3435485648743453,0.4920341185043141
2241067,0.008394601206038426,-0.03391160278192504,0.008654631956488683,-0.5679553327894976,-0.07824325631678397,0.47778914021676633
2241089,0.01354021673126488,-0.038125281243552356,0.01602053275835609,-1.223809928980558,0.5270112593137029,1.3900996165118522
2241111,0.014379068459691363,-0.033571744108021086,0.02388503304250979,-2.1546563455822367,0.6974790456312356,2.164277934922211
2241133,0.01217288398461534,-0.02323938755020686,0.026679829288058572,-3.0299877107635185,-0.13672324657229715,1.3113818741480263
2241155,0.011481782538015873,-0.015875265068302502,0.021874265874548965,-3.5020935664526776,-1.41836773872729,-1.177331477852849
2241177,0.014852190800338168,-0.01838230667697201,0.013521521218424808,-3.4958940587588416,-1.8305894248322128,-3.333722150038617
2241199,0.01823557777639408,-0.03019145294576534,0.008949185931562145,-3.188348760995736,-0.9995120180962026,-3.2407454588106592
2241221,0.013680795164291918,-0.04522182222687547,0.011279740730707687,-2.687527660457937,-0.4884705769941534,-1.568907042910374
2241243,-0.0012157526146857564,-0.058193735791186155,0.01627921827053708,-1.8576396588112598,-2.344965629128097,-1.3933730147572114
2241265,-0.01749136216110838,-0.06846878646008028,0.017188195065823975,-0.6522004532967937,-6.590948219348414,-5.071147342788044
2241287,-0.021851042252444938,-0.07874237068628677,0.01192585000095907,0.2983808480040327,-10.875615316750308,-11.730714774133434
2241309,-0.011235292411265614,-0.09083534752776166,0.004949452155556361,-0.40343389934447493,-12.959196602627044,-18.2210022609494
2241331,0.0015507166512965483,-0.10226620485441572,0.00246837706926015,-4.078890284815912,-12.900727595135889,-21.97119692845165
2241353,-0.00036181777201555604,-0.10578699260803769,0.006606436266327579,-10.767701732102175,-12.233236192973369,-22.305159709206244
2241375,-0.020287593432453756,-0.09177409311851233,0.01407672999540138,-18.739733635472252,-11.666769697497365,-19.659499441457925
2241397,-0.04435535782963338,-0.05378965682038034,0.019300045492264186,-25.060492064468853,-10.731131860910622,-14.895946502840632
2241419,-0.05608086017755534,0.0022319443585408338,0.018380306008202545,-26.75118088565194,-9.471275260806431,-9.536567742597162
2241441,-0.05209248110755456,0.05281031547426483,0.011376903670623049,-22.355179934879295,-9.085641903962522,-5.557649077700731
2241463,-0.04180807423343528,0.06932003245873197,0.0019108955937948524,-13.66747999146087,-10.25277002582284,-4.228838889579326
2241485,-0.0344240705851838,0.044197649950820456,-0.005411408091724857,-5.9658907062766895,-11.686540907618786,-5.212100695387101
2241507,-0.030568479454167154,0.0022240635568777445,-0.007328380571785031,-5.021693306343155,-11.281633070717612,-6.755675585746733
2241529,-0.026745816593870327,-0.02055234804155731,-0.0026124096115923336,-12.615370443464176,-8.510908976629036,-6.740043757599809
2241551,-0.023341147156689977,-0.006121444570738651,0.007053334765707194,-25.09856350607169,-4.991148673189378,-4.070613748849869
2241573,-0.024733200346272667,0.04121935400254381,0.01578119632895138,-36.55689392885753,-2.6153923680018965,0.4901157597014983
2241595,-0.03278975878457531,0.10911505018332954,0.016034874335461104,-42.79098133276077,-1.7224289276213585,5.066616420630491
2241617,-0.04350114297570145,0.18037674806440912,0.006149395221264962,-42.47138221938767,-1.356623448820822,8.39838862577637
2241639,-0.051145489092203206,0.2271539021949842,-0.0051745848856222946,-36.54967668737231,-0.7534530904757495,10.535483153590446
2241661,-0.054520720707638255,0.22516292767733717,-0.005603600563718623,-28.206315743747346,0.029758685431328542,11.94941949239935
2241683,-0.0576147685997954,0.18435928346768043,0.0074895446250445976,-22.185798222895894,0.7402976871723077,12.802245323841596
2241705,-0.06368080950222621,0.1506883602054994,0.022129969375670352,-21.72103349947839,1.5748030437808929,13.375214792653791
2241727,-0.06928234973313266,0.1620941301210547,0.023003381276526215,-25.5153896891414,2.997267815691145,14.214279329379945
2241749,-0.06620442485727893,0.2091002481106278,0.007618720350800786,-28.977415935076614,5.034424385160298,14.943900432596637
2241771,-0.051516905290619884,0.2510770237376527,-0.011286647724984134,-28.906198565524527,6.826723396798086,13.542349428757966
2241793,-0.03425157142248889,0.26445905079801557,-0.020133202287968655,-26.06312689770468,7.121540764731634,8.127567385412338
2241815,-0.026545064042363287,0.25857734027105905,-0.01840688382030536,-22.944292174153965,5.649619020487137,-0.15947815275723948
2241837,-0.026636420175470157,0.24749370773034354,-0.016050876342409218,-20.553810423653474,3.921885910686724,-6.892927911549664
2241859,-0.017976702571544493,0.22925779466868632,-0.01949221676952023,-18.633580231255717,3.871229376914994,-7.969493886013083
2241881,0.008119205701916175,0.20415043124785676,-0.024825401185521723,-18.049460816682434,5.361701701905744,-3.730510944602732
2241903,0.03412233685725194,0.19673768553125173,-0.025767176914423658,-20.663325836011623,5.8718711637435845,0.9679687949131106
2241925,0.03207980678812527,0.23616612607272816,-0.024382334355864614,-26.032186898895283,3.5079203984280904,1.2968971344867397
2241947,-0.00017773252578163367,0.31239339807646654,-0.029517336496346903,-29.80662703741161,-0.14019335975936661,-2.955680730412001
2241969,-0.029738597641316193,0.37127866976874324,-0.0442019576836812,-27.398617176017513,-1.32990808333659,-7.693359870420481
2241991,-0.024840938833655693,0.36773620359754366,-0.05808647949482138,-19.34232275961999,1.4692748383144576,-9.241572559163963
2242013,0.005779058946488266,0.3169052647268964,-0.05579395473593554,-11.47420063144091,5.56890649003809,-7.860771982326768
2242035,0.022518943397240615,0.27828114384757136,-0.032693962088618245,-8.954115615149053,7.04376248021219,-6.2263979922690424
2242057,0.0032415674817020228,0.2897895244408384,-0.00017198753184729382,-10.993593720181613,5.025708209204032,-5.649251158563534
2242079,-0.031249248125658165,0.33074065632642674,0.024700072101720205,-12.385581242353139,2.2459163213095623,-5.102090442565
2242101,-0.04438249498611414,0.35354192803978907,0.03230254038914466,-9.513644283826876,1.788291960255964,-3.47515727816838
2242123,-0.02477022964097933,0.3386496510825607,0.02370915070412952,-3.650640832053228,4.241628795673587,-1.2974584557267141
2242145,0.008734748034800226,0.30693509492238485,0.0056511794621569465,1.3170474640513763,7.839610704713552,0.09680584079074564
2242167,0.03427347073699184,0.28605194205648105,-0.014002007565346333,2.904444605481095,10.283074322521129,0.14107969802531586
2242189,0.04601566783499692,0.28142695435913,-0.02760802849708209,1.3633594255951187,10.08826705136998,-0.7446002982195271
2242211,0.04774982147792819,0.2822707438860098,-0.029688625783606898,-1.6602381808106055,7.085093404993412,-1.895383104006259
2242233,0.041123963191711924,0.2825927806507701,-0.02060046941325036,-4.619327289232573,2.5194109860789347,-2.780793833060667
2242255,0.026715869628660356,0.2874531207157614,-0.00762451895098425,-6.552721050895834,-1.4341745011429108,-2.9844472707687766
2242277,0.010271360182650785,0.30211803991361824,-0.00021264845007230263,-7.04855445938592,-2.938254279621701,-2.3950273392716
2242299,0.0006788210909266801,0.321270478028403,-0.0028146160874755527,-6.1571695032214375,-1.7204172256471981,-1.4170167280116535
2242321,0.0021816808937959644,0.331620618294004,-0.011999125226337825,-4.357956737174962,0.8276496572466578,-0.7073011822513595
2242343,0.01126240039233916,0.32561994732162197,-0.02034748486587311,-2.510321144676743,2.752746170811437,-0.6518996059256473
2242365,0.020790885365095307,0.3104517453201505,-0.023064083470960395,-1.4723163612042152,2.9259864634126376,-1.0892456605999874
2242387,0.02644348603681692,0.30001704271783614,-0.02109442484943458,-1.4075003717977965,1.715723859458619,-1.4152611542227518
2242409,0.02970669562710015,0.29906618732265,-0.018334486366394342,-1.616404561607148,0.4636563480523448,-1.0246310384306487
2242431,0.03428943214554549,0.300189469203724,-0.0165587561613452,-1.3831452966287434,0.13881955166453175,0.09528245880515832
2242453,0.039324907302737404,0.2959539305699995,-0.013783085038858386,-0.8305778704946783,0.44252807417551426,1.2082631888788877
2242475,0.03857937631628424,0.2873314380946888,-0.007378996221359921,-0.6232256802926129,0.3694389923610554,1.5095197552034736
2242497,0.028250743874084737,0.2794388617410917,0.0021927043953196496,-1.0799987708798302,-0.46128635847961846,0.9762731911310251
2242519,0.013298271918046051,0.27617787518466547,0.011055472192757022,-1.9586001261663961,-1.3483281813816508,0.34554026692039214
2242541,0.003687098591749361,0.2806058275126015,0.014785953715402938,-2.7989061894838234,-1.3316749653330546,0.3130982897162796
2242563,0.005425660291696963,0.2935279139893369,0.011624124345470652,-3.0260547021579884,-0.140146084888825,1.004679060632611
2242585,0.016141886856954356,0.3093516081496365,0.0035629572285020023,-2.0551610801315965,1.6726567075963212,2.130249884508977
2242607,0.02773995453356298,0.3188074210931089,-0.005349922670397684,0.11190154806736097,3.198014150820101,3.2620142778447243
2242629,0.03289122107411774,0.3176411566195852,-0.011858216592601625,2.5213667273394815,3.7194509780557974,3.9125600314628652
2242651,0.03126119943208481,0.30861171656306785,-0.014856393938584055,3.9758739351461907,3.106774874940005,3.7197927384329352
2242673,0.030446778580742167,0.2947576085552347,-0.01463197996647805,4.093191024987583,1.8538713744640842,2.7591170561906395
2242695,0.038877434857350776,0.27576117977637027,-0.011837510370467664,3.388727363904688,0.6211284188854793,1.480369655961716
2242717,0.05657390285955688,0.2521900145545912,-0.007485076230529754,2.4622211158389637,-0.350321808155494,0.2151573810289848
