timestamp,ax,ay,az,gx,gy,gz
2325019,0.003329100781514524,0.00811953329661578,-0.005972024963869461,0.6413496010387582,0.005776375793078569,-0.9159805970744577
2325041,0.005274024193431756,0.0061046862118487415,-0.003191473209256109,0.848056236628182,0.06739628552941059,-0.7676225426264225
2325063,0.00627372247423282,0.0044192981493643485,-0.001180012165804306,0.8623248025818034,0.08180495264533874,-0.6400657846838192
2325085,0.005955094084435386,0.0022056053120347078,-0.0005670136588893421,0.6692561973662117,0.04175899617207892,-0.5207807759733254
2325107,0.004287531301088963,-0.0019579337103304744,-0.0011282148407506074,0.38718092362759865,-0.039228316519061876,-0.35001581496715656
2325129,0.001129693202012434,-0.0076620683675565175,-0.0014987004756030352,0.07607259301235969,-0.14874482091186741,-0.052411782519992914
2325151,-0.0032052147329844015,-0.011309759060119126,-0.0003251647558811429,-0.3188351820726414,-0.23700547799758406,0.38016786655306173
2325173,-0.006851181884740133,-0.008700198569545478,0.002238182640865394,-0.7985132769189843,-0.19480014216963074,0.817257764782609
2325195,-0.007053252228779511,0.00019351171565105458,0.0046064551829884375,-1.1651599645306696,0.0548384400290436,1.0403617303838393
2325217,-0.003063135952206905,0.009868718430230888,0.005425648169772909,-1.1503868067629817,0.4312076673047798,0.9182033583641975
2325239,0.002172066026382526,0.013928726904819779,0.004744833724344198,-0.7023962756101682,0.7248727380839721,0.5356299025923268
2325261,0.004631517062794043,0.011133722129886517,0.0032482024492791832,-0.07976804944967752,0.7995837176217937,0.12667593787980913
2325283,0.003694130014551567,0.005990581539846741,0.0007970506098366988,0.38168022423589065,0.7376045702294591,-0.12263756312854274
2325305,0.0028653331482564985,0.0031201497744092685,-0.0033694139919143882,0.5610604508950999,0.730954411678223,-0.2086681560302436
2325327,0.005536212319300767,0.0021998698798814846,-0.0087550082345076,0.5651800777252761,0.8323693663436997,-0.27295910966407105
2325349,0.01080979302625604,-0.00014472975224002766,-0.012722774080066631,0.48153112744166304,0.8720109097381052,-0.43920249834277414
2325371,0.014347758971456352,-0.003754714805429689,-0.012430012704552887,0.23806206149757764,0.6542736489972544,-0.6626405880489413
2325393,0.013187094252756845,-0.0028091930146533577,-0.007816854353550595,-0.18702625322601032,0.20512478297293749,-0.7394734006213485
2325415,0.008960086658585035,0.006858510758044104,-0.002091590300539991,-0.4716629027784624,-0.2240948328669016,-0.5218734834684015
2325437,0.00595327649434286,0.018589673801020973,0.001263326000519064,-0.11043129793558419,-0.3982516886375145,-0.17753395410954584
2325459,0.00654808601471681,0.01774912185361006,0.0017013304448938622,0.8982983962213389,-0.3108445799833103,-0.19508367767264012
2325481,0.009528524506356722,-0.0010971930859991455,0.0012367490343803767,1.616648360558209,-0.16261713578142598,-0.9697931316130952
2325503,0.012523620170714171,-0.020786741418279086,0.0011856756919486676,0.8933352357887819,-0.1780348438655937,-2.1875923836303186
2325525,0.013934099070962401,-0.014004367516872788,0.0006909215620432259,-1.0730313442203239,-0.4378247785469524,-2.6228943639818234
2325547,0.011203989661809632,0.021643393810415384,-0.0006409577374059638,-2.2069593927447984,-0.7842033450814937,-1.0114829612150342
2325569,0.00026134962832725163,0.041936808360867626,0.00015791235044095104,-0.6185978770838585,-0.8072405433296446,2.0752379809152046
2325591,-0.01780330475191095,-0.015873225338067534,0.007060098342186006,2.0186248375613327,-0.06100997017544275,2.888064667729379
2325613,-0.028999289273626706,-0.1653911874480451,0.018326046171424575,-0.3106335657947956,1.368872210173218,-4.002469165421153
2325635,-0.013400968109387597,-0.32846454397953834,0.023915007630731972,-13.547694083037966,2.3195728004567147,-20.98538848886157
2325657,0.03174037008669265,-0.3780663997351634,0.013462773123982861,-36.71016764057547,0.8923633046623544,-43.07576405909722
2325679,0.07780260067327946,-0.24621979286373546,-0.01121814028746564,-59.48236338043597,-3.9532120434911087,-59.03488441189787
2325701,0.0836668462370462,0.0038270866861247217,-0.033623647311541424,-68.33074060843944,-10.730685904875518,-58.60406701409981
2325723,0.0346336905559723,0.22126331348776235,-0.03578699959529495,-56.9403758611161,-15.708305628528171,-40.16211712177481
2325745,-0.039824413957145643,0.29225476789973986,-0.015145227555197899,-31.59351032697013,-15.608972690770589,-12.14683560611555
2325767,-0.09072219768738896,0.22532707814017142,0.012551141109812064,-6.341665654158693,-10.438059620885053,12.815366936781007
2325789,-0.09234573396669643,0.12001053093058259,0.02769765407902673,7.509694961296049,-3.566665533141534,25.98504646858915
2325811,-0.060842360243688345,0.06332643261500086,0.02404314372988416,8.131179850213158,1.1116756594169463,26.60902232013157
2325833,-0.03294163884973089,0.06387087315404083,0.011623173260279973,1.3060971489411166,2.205920002714435,19.944352477164713
2325855,-0.028828416476601552,0.07650509052898544,0.003657514184422445,-6.273665274190213,1.3696356094974784,12.204016224308718
2325877,-0.03618905800587204,0.06869694064200628,0.002276326472838979,-11.572353268157757,1.2845257946582018,6.981646355131851
2325899,-0.028631633830013988,0.049479033687533105,-0.0016978494899083894,-14.759715587985088,3.1902640168263687,4.979926201705487
2325921,0.0038098926543322434,0.04275612174089409,-0.016058088779679177,-16.39354983534208,6.056551271827924,5.4474795577560275
2325943,0.0448293767241886,0.05307553976849797,-0.03725369736641117,-16.20528037442786,7.769451264678093,7.126859114012602
2325965,0.07017262258513805,0.06801022392694549,-0.05434907297470505,-14.357687893874372,6.9611171551614754,8.370885850781601
2325987,0.0706958787876665,0.0844322154093738,-0.06074127013784107,-12.510502861689698,3.839928007848784,7.55081354529965
2326009,0.055779209883983716,0.11475130880238214,-0.05919692945275941,-12.396619628123808,-0.36514952215237795,4.266611378254045
2326031,0.038664354178941554,0.16259754163580648,-0.05565859158321377,-13.55249087787021,-4.406479760605933,0.19715776339576788
2326053,0.02375886041911917,0.20514683663035096,-0.05101276497225693,-13.631336578635894,-7.49268625127032,-1.8892519029462398
2326075,0.008102606020209555,0.21178517926701082,-0.04065281125659886,-11.201625997236615,-9.204794498110406,-0.4607465028856737
2326097,-0.00960556075963645,0.17771556291727622,-0.02092605764223885,-7.232226740942666,-9.380270866317606,3.5841425437479812
2326119,-0.02549529591990712,0.13058219122056286,0.005772774676419595,-3.3525131649928315,-8.172106257762021,8.242344437024352
2326141,-0.0357898844151578,0.10344507389082601,0.032188361085338166,0.4443502252214243,-6.0348963848301285,12.524584894918835
2326163,-0.04225142666469036,0.10559313552065824,0.05129393328888479,5.496182795866289,-3.4704079741303415,16.77075296511545
2326185,-0.04950697510851573,0.11917004624623664,0.05999384777402052,12.207170467889647,-0.7666112334421353,21.179217912219606
2326207,-0.0573346275623962,0.12046170585795328,0.058677703320958646,18.867300577406883,1.9556757086780703,24.89581801067387
2326229,-0.0581779917815414,0.10349733994019732,0.048301455768597276,22.917873413169204,4.489049794221425,26.915794023899064
2326251,-0.04350560605109905,0.08277671865841477,0.029034506757931688,23.145570138968637,6.4822314495666316,27.375239465712653
2326273,-0.012067842564641218,0.07239631911411444,0.002298352056206119,20.466735643184307,7.661034225370956,27.335178157364968
2326295,0.02753452272092234,0.06676814352320828,-0.026624918381499663,16.554746985754335,7.961816389072796,27.328529074092533
2326317,0.06092552548523714,0.048771409510267365,-0.04949601208092553,11.927610584248209,7.3980904282257445,26.64823157347311
2326339,0.07584489572934339,0.015594598704923196,-0.05961238980622962,5.824142188605049,5.987277224614515,24.394618434053456
2326361,0.06992900352042618,-0.012313333677278479,-0.05577624588300805,-1.9579613028592153,3.967280882596698,21.03823908747704
2326383,0.052388820710633735,-0.010557746695490436,-0.04228233207742672,-9.737730761319447,1.916786074263945,18.511287012317148
2326405,0.03594729177665888,0.027203576134516325,-0.02564471548065178,-15.057882020553674,0.36859535356720996,18.456143710140513
2326427,0.02563018603230825,0.08817858076498333,-0.011222132813060977,-16.85827639935851,-0.664148507794337,20.447361479566265
2326449,0.016926982286668987,0.15326376570914935,-0.0015853181382503379,-15.980528665746437,-1.4762770008987303,22.277730587592636
2326471,0.005320584858483996,0.20628838442638348,0.0035283698498646088,-13.745979540516208,-1.9699786711377019,22.139991447633186
2326493,-0.005950495120939835,0.23781122536477572,0.00613809735031038,-10.787890431897228,-1.5378993300873791,20.23746174414406
2326515,-0.010083932749705548,0.2484904984889254,0.008273074430494371,-7.284682906128803,0.18745046711962055,18.043392966173563
2326537,-0.005373345169153288,0.24813022774717955,0.010482325471519642,-3.54467362871502,2.7485304697274096,16.360091604835635
2326559,0.0043525781623126,0.2468263422457377,0.011388682806380298,0.010406272569669084,5.19297036641236,14.641284576255545
2326581,0.01599937530433174,0.24652367096773495,0.008537048143514634,3.035767117400499,6.747700921608494,12.12907914519203
2326603,0.02925765680712339,0.24209077740194496,0.00046975077818415335,5.159029195621919,7.054086419521618,9.00410250955742
2326625,0.042591316626836136,0.22853099502666757,-0.011096583000194681,5.968878380514449,6.098285718722367,6.073715545259127
2326647,0.0515590552533114,0.20557933214352578,-0.021414582959118456,5.375252360861795,4.250402533737184,3.7524706892631925
2326669,0.05289917215112801,0.17785049303399422,-0.026117967098752266,3.846351970802418,2.224965566185442,1.8991765734960055
2326691,0.04791240330793566,0.15305805614041507,-0.02486123258070027,2.108692084139327,0.6744029266562882,0.48898273964766814
2326713,0.04038426655222257,0.13803404664956528,-0.02113503553799899,0.6671702462378468,-0.23334050630985215,-0.19840721360508015
2326735,0.033036604081823816,0.13337041192352764,-0.018603910746120566,-0.3449165659955621,-0.744301943548047,-0.19786794969440794
2326757,0.027236259231355246,0.13293526684549017,-0.018370985243169557,-0.9925029850479716,-1.1040743714261798,-0.14521407463081298
2326779,0.024230244770836025,0.13079202821174396,-0.01966348087982646,-1.307185459497364,-1.346401341048909,-0.6217010052698824
2326801,0.024687475414813097,0.12679775018048117,-0.021632542255417036,-1.1719487466233744,-1.440133630784184,-1.504612669221387
2326823,0.027441034659646642,0.12328458444832056,-0.02325824302620711,-0.4817913396365205,-1.4920793204939515,-2.273890163274295
2326845,0.029478786395852583,0.11975247288984227,-0.02236903258337745,0.46688948875620906,-1.7401468217495002,-2.7561774476108996
2326867,0.027305070496263212,0.11526180013806091,-0.016944703627153137,0.9260187633639674,-2.321632119956865,-3.2119938189205093
2326889,0.01952196643470588,0.11313727170027316,-0.008253076383912468,0.41677633567688477,-2.9935855487354526,-3.742594717076182
2326911,0.009524328377200172,0.11717874684076235,-0.0013344485490924673,-0.49397489492692326,-3.140718225631078,-3.9548070791276912
2326933,0.004285182070519054,0.12410545677197708,-0.0007995136241499081,-0.5913990804759375,-2.285151897484785,-3.37235219419056
2326955,0.00768466077769985,0.12564419008524594,-0.0061248689089579795,0.5624134389992683,-0.7208903666983317,-2.0666883571744066
2326977,0.01536071529028134,0.11853263401941154,-0.011903321235844672,1.9136688315220514,0.5040389246385253,-0.732680978536258
2326999,0.019065511056727106,0.10735312420672712,-0.01300737361635701,2.0048332207429453,0.46596141771249827,-0.07288126379618516
2327021,0.016519363116935297,0.09669317444026883,-0.009363871152530578,0.6856794409638034,-0.7119165054453449,-0.10699104137933138
