timestamp,ax,ay,az,gx,gy,gz
2254773,-0.011733758836686432,0.00020301448565187332,0.0016536293718148053,0.04814113079169105,-0.40595178369785484,-2.6560348465740797
2254795,-0.0021512746469078674,0.0015350138660520849,0.001636930508049278,0.3163468714916274,0.3221978945365176,-1.540545147524621
2254817,0.004670810224128619,0.001101820643838299,0.00018493087663150773,0.4440758641594869,0.6522427166942396,-0.6516036400839429
2254839,0.008087543183985779,-0.0015095266546985176,-0.0023102874711307965,0.38613875241832624,0.5152447183102233,-0.039349264671892585
2254861,0.008882655969308807,-0.004816669679928519,-0.003843969622495209,0.19587947432162112,0.13232653205387368,0.41504523382925723
2254883,0.007177833173440808,-0.006142979796444428,-0.0029347648561662424,-0.04397771409722196,-0.25568611396783764,0.8136466761200071
2254905,0.002626120934842061,-0.0037264508364723966,-0.000318209650740778,-0.2601421954999818,-0.509518062297886,1.0989251913259568
2254927,-0.0031344320106786424,0.0010899638115706085,0.0017976758977050573,-0.3819183512413965,-0.5265840963808978,1.133240382009739
2254949,-0.0061679582953186865,0.004407269607971614,0.0020077930495576214,-0.3728331807223487,-0.25367592855209825,0.8971033678690418
2254971,-0.00412103994978345,0.003541126300475302,0.0008362246368802523,-0.2983654549343485,0.17734476572307667,0.5529393935086493
2254993,0.0003234951100274351,-2.0359361687197647e-05,-0.0003781670205426251,-0.29987366168408225,0.46040001100135525,0.2937952526422249
2255015,0.0019352755085701775,-0.0022987087207003314,-0.001233575319278769,-0.4421972485087569,0.3855712705466791,0.1628186441938648
2255037,-0.0007748079997488527,-0.0013874348071135287,-0.0024958466016823102,-0.6106517922922875,0.06881163570608019,0.07223836435788428
2255059,-0.0036355039547380265,0.00047547229996649343,-0.00460321207803726,-0.6216322396867151,-0.18339127047463977,-0.0033456312922144063
2255081,-0.00232670644929815,-0.0002258212971086666,-0.006440078666471345,-0.4569884776128019,-0.24005024220350196,0.056149899725295646
2255103,0.0018042984200089503,-0.0038012760876957948,-0.006231266182767905,-0.3459883004079276,-0.27842357884716135,0.33066078687497225
2255125,0.003446499117944892,-0.00650886636241769,-0.003739705908234141,-0.5490588059544432,-0.5021773597558831,0.6523570263887308
2255147,0.0001712038473112133,-0.004477847233580494,-0.0010020036720128863,-1.0410723595231397,-0.8162525600129106,0.7108548328337599
2255169,-0.004496881143524475,0.0018706006054038493,-0.0004621985134221853,-1.4580782452231402,-0.8993824499994287,0.38728796525608605
2255191,-0.005062306780921308,0.00763672710692771,-0.002569688023806454,-1.4173818436797774,-0.594014323952795,-0.09877546382285457
2255213,0.0003095259893954329,0.007702396342480504,-0.005464604151228719,-0.9035882389969795,-0.13429361972873505,-0.40739275208652526
2255235,0.008420171296108949,0.0014598666028709764,-0.006877657321111007,-0.31493615085301296,0.04213611083192795,-0.38550473689999476
2255257,0.013994863543258301,-0.006199675164524199,-0.006126911637261725,-0.10613497497874019,-0.3255678265079313,-0.1363817973848438
2255279,0.01341618083659607,-0.008687890968280243,-0.004328279181037601,-0.37686557544124816,-1.1117043342854207,0.13138895279047735
2255301,0.006736428349386268,-0.0032904384788504117,-0.0029507233099896665,-0.8060992298410966,-1.8978246062450523,0.2449319261581026
2255323,-0.002561784068890606,0.006476142039343316,-0.0024746199809578284,-0.975699124566349,-2.253846164774911,0.12158900125491306
2255345,-0.009760332094341911,0.014118934847886132,-0.0024494760687684154,-0.7412039123166931,-2.006825080026298,-0.17543229404423652
2255367,-0.01185003282049603,0.015859900288214733,-0.002372547414077972,-0.29746520778207725,-1.3398439173132575,-0.42155092914423886
2255389,-0.009087605500665355,0.013072099402724477,-0.002103393527785444,0.06428219940272818,-0.6634837059059896,-0.4101388923715834
2255411,-0.003949411955154579,0.009574660297015645,-0.0016901461398385503,0.21833795239207734,-0.33246690063455364,-0.2233049650702877
2255433,0.0011988153653077446,0.007307329802207729,-0.0012675476452830444,0.25586004536218804,-0.4036587912606501,-0.22769032208200776
2255455,0.005245744425283788,0.004782691670071396,-0.001025934478001429,0.3420176995209707,-0.6417846795727287,-0.70783974572313
2255477,0.007642985249728547,-0.0006027072025097852,-0.0009393988192218786,0.5221213803670445,-0.7810031035803487,-1.5497381958758452
2255499,0.007608363517310584,-0.008816143398176803,-0.000692881835718072,0.6259267354243059,-0.7781789349596506,-2.324004029178328
2255521,0.004700393169700659,-0.015811981317051044,-0.00019833678475786594,0.397357481042014,-0.7814182719188061,-2.59172631551974
2255543,-6.871675869598527e-05,-0.01653867251066569,5.895485297793592e-05,-0.20363058216709556,-0.8812454161411131,-2.1176672318467644
2255565,-0.004363049361371489,-0.009781746984377799,-0.0004534931236888338,-0.8603250728239797,-0.9899057469238531,-1.0023315048611077
2255587,-0.005996336005155714,0.00023062762524140418,-0.0016478530302029275,-1.1575354630774084,-0.9880289700290297,0.2342308658053344
2255609,-0.004165849227118323,0.007049993589433188,-0.0029124241982324568,-0.9684322296125226,-0.890028643224665,0.8824619586641445
2255631,0.0003365919454724188,0.006614124867059031,-0.003581451138830575,-0.5236011203514409,-0.8135933071375837,0.6387029423429569
2255653,0.005106277001363993,-0.0001632883990773186,-0.0032001086523699273,-0.1735671795670129,-0.8678890858707431,-0.03921433487939088
2255675,0.0062392892235987474,-0.007467954303998558,-0.0019023953791212113,-0.1865558422103722,-1.103489668243184,-0.3776519278591598
2255697,0.0004087680968474184,-0.008129357166251825,-0.0007491172311523776,-0.6451882221536184,-1.4472023555873412,-0.1110323656839094
2255719,-0.010937586440537548,-0.001030145857050418,-0.0008118695405740453,-1.2894544903720173,-1.6162186622709933,0.3228383601287722
2255741,-0.019893579714157006,0.003499021262186514,-0.0012352704511048558,-1.5055015995732068,-1.2623062166881596,0.4572217770186143
2255763,-0.017664347946985414,-0.010010735799848385,0.0008700890260993318,-0.8251311826135297,-0.3968769032515477,0.4590579556188659
2255785,-0.003841267922739487,-0.045212223082862484,0.007049479831514773,0.3791321133122121,0.39189830302644346,0.9337060418847478
2255807,0.011155522651643414,-0.08368466631976493,0.013942114818796545,0.9169388338959593,0.3702969974249945,2.1096612207873604
2255829,0.015062374230874203,-0.09641763723250772,0.014631715047197033,-0.21467208280012595,-0.6179948965789477,3.3952966441574794
2255851,0.005197354712208254,-0.06865371416257002,0.004725695714776099,-2.800779783975909,-1.9492934600387124,3.904841378890713
2255873,-0.010044606261507345,-0.01371421796172455,-0.013192687353773285,-5.44815064774561,-2.7615725656093173,3.4358855289322188
2255895,-0.019854841869493742,0.036339101560543804,-0.03152038529396779,-6.653888055498646,-2.6104411382169026,2.7556299720380015
2255917,-0.018704980446573715,0.051793417696004776,-0.043099006376079295,-5.893237150807871,-1.6152582202618164,2.7996437061091015
2255939,-0.00650298193458228,0.020790491817477916,-0.0440759338041119,-3.921851769260013,-0.22769550876022726,3.7413091596746844
2255961,0.013559638856128091,-0.04629414241591519,-0.03327156693863889,-2.2934438249539264,0.9125519047430157,5.065854972894344
2255983,0.03416648432742929,-0.12182321650401348,-0.011877251889517718,-2.492454658400612,1.1164017301898508,6.5033219326693334
2256005,0.044563956742854426,-0.1751506629683016,0.015581858209192277,-5.089995170933234,0.15491463441831663,8.628313688194096
2256027,0.03735646646629326,-0.1907389536022385,0.04222304051202046,-9.428424279853182,-1.2461721079481876,12.348735910469472
2256049,0.014446412357422406,-0.1746257482211237,0.06255319336634341,-14.159219048563276,-1.813695830182267,17.76840220067487
2256071,-0.016254969133295053,-0.14190753497922537,0.07521237832040799,-18.138782222750155,-0.8429008762856718,23.620016851339514
2256093,-0.0476676205780468,-0.10078211642388758,0.08172310351940916,-20.757849123542872,1.3420286925527893,27.916275973717305
2256115,-0.0732650164870266,-0.052142767526381806,0.08294464824101119,-21.612143942140143,4.100205021125361,29.270898768881093
2256137,-0.08333024372165358,-0.0007463240848606693,0.07730367423739269,-20.317953248558947,7.175224321157925,27.779487217355243
2256159,-0.06936196338572591,0.04083289085566271,0.06279015089839414,-16.857514157784504,10.378821548136333,24.895207075688518
2256181,-0.034149534147517036,0.061553959151130516,0.04040244117363015,-11.94486533221342,12.961162566189085,22.573738074175726
2256203,0.007090132442795782,0.06279267482449023,0.014592168905820583,-6.938485093495265,13.833483619010853,22.202300393837213
2256225,0.03812612593174028,0.058119119905901837,-0.010141019785443241,-3.4008372568049188,12.47330869321651,23.7168937011862
2256247,0.052764778408022954,0.06085356191610521,-0.03170763089883119,-2.5782580755819304,9.407184860316454,25.49294644291422
2256269,0.054520895453147956,0.07120005655839594,-0.04837139735662556,-5.02781106468101,5.782993071573885,25.47864946708623
2256291,0.048446511162094426,0.07887393523627559,-0.056268852437589084,-10.522650748502313,2.6001083286473237,22.867075121641495
2256313,0.036208870354654185,0.08038646251067383,-0.05230410904721139,-17.957535180761678,0.4128196301334355,18.728022747806303
2256335,0.019455662552336456,0.08724630506308848,-0.0396607376035006,-25.025233461018722,-0.3935869279831696,15.066645509080312
2256357,0.004987776474047458,0.1105383664642923,-0.02747897947808929,-28.527197875959477,0.5128326015870831,13.416227039447909
2256379,0.001964349173832589,0.14268707590004656,-0.023230890784599768,-26.297775763769135,2.910379671120568,14.112688400311423
2256401,0.012397047628276668,0.16340557047657173,-0.026177486000816524,-19.407839887215992,5.645240270875311,16.355641862408806
2256423,0.0275461416850757,0.16219447443244547,-0.029132956690036363,-11.835779732413929,7.26642265600816,18.71982566710332
2256445,0.03596730549590701,0.1485453335274497,-0.025949915599161835,-7.380693397375865,7.14191340528461,19.917581171570703
2256467,0.03283876709402017,0.1408919762276754,-0.016676215998311972,-6.990963356610777,5.772488432715932,19.50591428074122
2256489,0.020197068922882467,0.15059208060096507,-0.00646516515308129,-8.96132221082717,4.15570287970539,18.024739229091196
2256511,0.002290971842774508,0.17613640254678573,-0.0012517646231572403,-10.994925441669107,3.1266541314004432,16.354934576867585
2256533,-0.015318723949133493,0.20686740175571902,-0.004880538174103513,-11.723265694803315,3.1368796381329043,14.84440627212778
2256555,-0.02427794793178914,0.2279203949079121,-0.018466314907650293,-10.81069423933507,4.194535459516807,13.135096941945287
2256577,-0.016061619950703897,0.22433594340809615,-0.039577979238136385,-8.488058078785567,5.824945843168532,10.927805628834983
2256599,0.01145370518002243,0.18950967157890883,-0.06114450920012129,-5.418717969557088,7.190824993228869,8.751555953802361
2256621,0.04964652024926823,0.13637390720676856,-0.07369943657118114,-2.7297064479663025,7.366638643884355,7.694997034705306
2256643,0.08152072488647465,0.09659473535752112,-0.07171683959688713,-1.4880505917313236,5.698647306266344,8.33428415700356
2256665,0.09050286973885652,0.09927789184145709,-0.0579579006672808,-1.7573931833778291,2.25308177991012,10.110438562316645
2256687,0.07102286030851664,0.14586273127924473,-0.04047141985675472,-2.403807213071943,-1.9127133535284244,11.795170784174868
2256709,0.03324624562561024,0.20713963412988032,-0.02567489334702842,-2.1781733666548626,-5.12516870219494,12.37175623594395
2256731,-0.0033838543133026143,0.2459497286573915,-0.01496636187597091,-0.8965558529185882,-6.045245651756227,11.449321243371536
2256753,-0.024336279262830513,0.24397637071727216,-0.0066566339069468305,0.7054667322369289,-4.444665243724367,9.185284897957752
2256775,-0.03067024678374905,0.21178728463883714,0.0009069033587828588,2.114146399094404,-1.2525904380686985,6.133134946272053
