timestamp,ax,ay,az,gx,gy,gz
2275849,-0.004260074711300738,0.0008885666496140082,-0.0023820429324542453,0.8090991605913732,-0.19563896883477863,-0.2450363979450229
2275871,-0.0009986783362929321,-0.010802521383895607,-0.002871680677040222,1.008464070935089,0.30253056815146906,-0.2829353942642149
2275893,0.0021584411066524036,-0.016937360533437352,-0.003837685266148617,0.8465083580737537,0.43292988772143254,-0.3238431292981366
2275915,0.004527792328460176,-0.016000044172895304,-0.004515389127562615,0.2741038491293819,0.11034205750819347,-0.333689130030157
2275937,0.004935177287120378,-0.01049449863177417,-0.003199176493178662,-0.4535312978553894,-0.42901143231335237,-0.2664857644951025
2275959,0.0026316084922887446,-0.0032674681427164462,0.0008439724400185367,-1.0283759157264796,-0.8181770810760236,-0.10528712652285846
2275981,-0.0016427196490392418,0.0053231552491904595,0.00568313700446366,-1.2561613991765388,-0.7850770911945257,0.12897765329101424
2276003,-0.005154721592916447,0.015455641776879137,0.007415449448039759,-0.9977988085516928,-0.2725755120738159,0.3674323107683607
2276025,-0.004013727914770268,0.023142412988633353,0.0033609818311645255,-0.12567685625661262,0.5370911766220073,0.4746359799686684
2276047,0.003960109596876455,0.01995119958978063,-0.004919245149091143,1.2451701540883537,1.2435946673052025,0.2917384320666037
2276069,0.015669053618093575,0.0009163791964194514,-0.011999305594784996,2.4693508406217375,1.3452110410218152,-0.23518974863880313
2276091,0.02266190616639767,-0.026364277194335227,-0.01264447825478178,2.5935448627616275,0.5408846508191786,-0.9391474917223435
2276113,0.017163639050408776,-0.04358779063678266,-0.006080159711747295,1.186962105299097,-0.909116515247837,-1.4608985963686727
2276135,-3.327130966340221e-05,-0.03653764796129725,0.0034256594445128577,-1.0099826105881486,-2.1616885405800024,-1.4620566107703725
2276157,-0.01809774117268042,-0.009212224064310088,0.010015329709803207,-2.4919171257481096,-2.344976981473132,-0.8970706403747956
2276179,-0.024087364108555658,0.017962095387174387,0.01048120247035422,-2.2559691109614746,-1.3152447848151416,-0.11932382403096434
2276201,-0.01373663829664756,0.0254607964169711,0.005971960077731251,-0.7114348880895903,0.12324373691530904,0.2989630774663853
2276223,0.004781294608575472,0.011268878601160272,0.0004586638786195414,0.7161344027587164,0.8504944321473786,-0.07111166508222522
2276245,0.017714044935053894,-0.008919817030130893,-0.00240519295954718,0.9097022214090682,0.38067113380487105,-1.2020849530797042
2276267,0.016959798252484053,-0.01735466796993211,-0.0016698537065250453,-0.0006026421841948655,-0.7636196901761417,-2.551853409021599
2276289,0.0056468630125104625,-0.009728665334647602,0.0008316475954222749,-0.9450211652830872,-1.5885798669475404,-3.3512229468239774
2276311,-0.005843735603870833,0.0039054847860818848,0.0024246523120377114,-1.0104963395258784,-1.5164294818549982,-3.115286134544641
2276333,-0.008389573406421498,0.010615054530317315,0.0018122328457312105,-0.16262909378581022,-0.7836392522449773,-2.003192300659666
2276355,-6.218158169848354e-05,0.004723838338763223,-2.186470184580339e-06,0.9522428582035674,-0.09894268474668116,-0.6660840847121267
2276377,0.013143386340832786,-0.010938587608421698,-0.000543386721073958,1.626027182999088,-0.019734958452909915,0.31997276256459106
2276399,0.021005382467814485,-0.028645600931891977,0.002044820897412254,1.4541277637909618,-0.5812215628113544,0.8908764357590887
2276421,0.016052421549073832,-0.03992373710415263,0.006992673945463272,0.4059007375271507,-1.3173654718544414,1.4057819945309877
2276443,0.0005433046747766898,-0.04141096176061923,0.010894665060721256,-1.1465561404515843,-1.5689486049176624,2.22605261331413
2276465,-0.013247294867896109,-0.04022387719213749,0.01045077397424325,-2.5658757136762262,-0.9517685474187081,3.4603264662237496
2276487,-0.012815961985885294,-0.04992280628633558,0.0058318659803481086,-3.4730330695682587,0.2673105838489683,5.073746378232628
2276509,0.002277834747621213,-0.07571259643018269,0.0011540845541402286,-4.235468546111148,1.2604077729780663,7.0903827454933115
2276531,0.0188290342811077,-0.1046115229781819,0.0012068214771576956,-5.680064070221939,1.2914807045762697,9.569487279785823
2276553,0.02255294337336368,-0.11611841257683067,0.0075684451472709515,-8.167817382527593,0.44671476633529367,12.396484933523274
2276575,0.012309307183833268,-0.10465843921163763,0.01763748186896487,-11.182557827699446,-0.29861461365199193,15.170060780064903
2276597,0.0007735305022371874,-0.08735378275699403,0.02677248330231642,-14.11576781652001,0.08443231491358405,17.307290818648944
2276619,0.0012933280013517337,-0.08570011669263897,0.031074206447281014,-17.344430764373097,1.5961638706662276,18.222613936625816
2276641,0.015274932954067417,-0.10041447757045754,0.02885393159210425,-22.081944423454626,2.907076750982869,17.441496522539552
2276663,0.03174518704493021,-0.10762476939332451,0.020750234217874725,-28.843324019383292,2.2352959555484095,14.695774683212775
2276685,0.03713438081676211,-0.08170863138102204,0.009196207530978186,-36.2054765822546,-1.26005019900795,10.082095843547657
2276707,0.025642220044171295,-0.02122587847981192,-0.002565133420408259,-41.49256989514844,-6.690141836924912,4.293030961682586
2276729,0.0025282416770593128,0.048925729694215325,-0.011589206657909247,-42.83821308501868,-11.884155420380255,-1.1505256520647262
2276751,-0.021543861417627392,0.10005692413273655,-0.015440104527467717,-40.437607543773254,-14.808714586190863,-4.095422231230565
2276773,-0.04025926057448567,0.12278646823241335,-0.011730687878969694,-35.83935946988794,-14.985967099137207,-2.947439825999656
2276795,-0.05636331734931514,0.12996830322144357,0.0005657754493040646,-30.29239944049656,-13.761807529215483,1.7733594376090216
2276817,-0.07611014723831618,0.14140379552802146,0.017448292519079013,-23.75377181027076,-13.016556922735791,7.526819883256252
2276839,-0.09886025483168481,0.16641169113769064,0.028618467519075763,-15.227053486272892,-13.366376475604223,12.19465209948717
2276861,-0.11387034635540315,0.19681978456163574,0.023563538937792727,-4.190493206318919,-13.647012833973779,16.229946466250865
2276883,-0.10986435829803105,0.21341416575323655,0.0013313865937115937,7.827137046939056,-12.282459043702923,21.416852078945873
2276905,-0.08783926356916577,0.20184781990998943,-0.026926018821757967,17.09288384038105,-9.047133579764095,27.444080135168118
2276927,-0.06187280479490674,0.16714331654948228,-0.04734972097591398,19.83862921246156,-5.260762007608289,31.00927272131036
2276949,-0.046445636233660444,0.1327169022409654,-0.055147735584364026,15.286309559585034,-2.363018481228003,29.15894760433911
2276971,-0.04495813717197238,0.1211803245295287,-0.055848078025134786,6.5841155808358,-0.6839460570996794,22.690170481635622
2276993,-0.05084108178034779,0.13359512039774674,-0.055977297648042684,-1.4908843962994798,0.37301361198371974,15.298541183392421
2277015,-0.05626655202380469,0.14831164888486417,-0.055226715760747336,-5.97257163373126,1.4771123313437422,9.906248200834064
2277037,-0.05726871416708871,0.14242276389696124,-0.04880172369049167,-7.2617571217209775,3.018941175367278,6.763127541031674
2277059,-0.05305098665919483,0.11554006890249749,-0.0355061993061628,-7.783916286516983,5.175542619832476,4.752707623382077
2277081,-0.04499691422065018,0.0908323721388222,-0.020669011191480104,-9.294901794375287,7.7414352568541895,3.3476749738900144
2277103,-0.03744127982979352,0.09108871025259026,-0.010564361404766966,-11.322318966324223,9.93255622283541,2.894762403515247
2277125,-0.036405428974287016,0.11621805389555653,-0.0062629935260510765,-11.989174829065794,10.85129251155877,3.6220067899937765
2277147,-0.04441551465522266,0.14669460163509784,-0.00484125873920711,-10.103359114607576,10.427420874490446,5.00843619762112
2277169,-0.05569509201625199,0.16497775044671883,-0.005180794228149603,-6.269078114366812,9.739680711545482,6.196902383604096
2277191,-0.05777361621914412,0.1680794031522303,-0.009578501349454724,-2.200061554547814,10.073662496964541,6.775007425040652
2277213,-0.04102475274382225,0.16238751160263087,-0.018897612757278522,0.5238622187566071,11.478087128931373,6.973597109347247
2277235,-0.009738436696798726,0.1548885655179856,-0.028366140075540155,1.0075471867371504,12.393837966605005,7.138022719534913
2277257,0.01729328773345269,0.1516677939749719,-0.03091220474714418,-0.8614491695897946,11.090680296630662,7.19496095594594
2277279,0.0221482651321171,0.15866774902900624,-0.02536697098545763,-4.150741302160219,7.68173150215047,6.804760206352851
2277301,0.006055978617116716,0.17750200891895568,-0.019618039891631724,-6.8968554276631115,4.449161889494031,5.989706257316376
2277323,-0.010609778277061515,0.20001153322373286,-0.023560034198724353,-7.16092859629892,3.756851890347911,5.340142297492302
2277345,-0.008708487175331972,0.2110259299248616,-0.03888430869049299,-4.588957454349225,5.642550749567919,5.397618396833821
2277367,0.01159904549514532,0.20067941593591437,-0.057119680005174374,-0.8589291821207143,7.778279417070175,5.963011835358036
2277389,0.0340053583177984,0.1750261646289731,-0.06771932489428191,1.677462717690298,7.787682007120126,6.275590870492049
2277411,0.04292880659591219,0.1527392809336396,-0.06686458322050431,1.9225408772589783,5.295016000506749,5.87549284692638
2277433,0.03448827424009349,0.14943401746640758,-0.05860932695218884,0.7361597954057494,1.7991199704678433,5.0628443179853555
2277455,0.015144019555734196,0.16431854046567487,-0.04938930786867667,-0.05882184512910328,-0.9083593329868953,4.444489699343292
2277477,-0.004895727906649796,0.18165731223831613,-0.042421479292103784,0.7041239553282543,-1.9941845552689972,4.241710039333956
2277499,-0.01768936974975865,0.18502099899047358,-0.036469699171813925,2.691824909902487,-1.7382506240397193,4.203913305843541
2277521,-0.021559789974582827,0.17082262682001373,-0.028800891252620947,4.560165739878453,-0.959853268612772,4.049637232104967
2277543,-0.020782689122166652,0.14972103385582058,-0.0190836557494762,5.213550034204598,-0.33640186830592983,3.711345841144111
2277565,-0.02021757484693613,0.13632112099092777,-0.010680474514067501,4.72694896408689,-0.06254637790561188,3.1155054271119176
2277587,-0.02015094280087349,0.13682290985890527,-0.008111742869653436,4.189663353996359,0.014293470040218963,2.0120665977190995
2277609,-0.01727103705355414,0.14414879840203335,-0.01274168440907333,4.668523893149864,0.06362338522113017,0.3065913445221329
2277631,-0.01013537461770972,0.14408897753830371,-0.020515583863469886,6.201034434270797,0.14056180282620132,-1.4796400580578553
2277653,-0.002068088234195979,0.12852613390023598,-0.024453372235096665,7.663219823668086,0.2714469666428364,-2.378971693101984
2277675,0.0017443602019242691,0.1048238739590943,-0.0206634689084347,7.654654905712271,0.48530843301103654,-1.8186443873606593
2277697,-0.0006305379629911192,0.09049153555736261,-0.012477851330218667,5.743476696714347,0.7333123746996878,-0.2634176290808354
2277719,-0.005533181299268005,0.09528981241090728,-0.007826518882873622,3.0179401629896336,0.8913804206128312,1.075081558207532
2277741,-0.006213565983024339,0.10912435620467657,-0.011621116271070406,1.2915772373011067,0.8741532914141048,1.196136874047453
2277763,0.000971133226182791,0.11210407061986756,-0.020960494602251693,1.4968996333364262,0.6704522397977659,0.06616282180623559
2277785,0.011397651093122716,0.09861869995790234,-0.028256975019784025,2.7805907522563342,0.2681082528623692,-1.3870111577507063
2277807,0.01414770513668093,0.08720909631647371,-0.028314414007517243,3.2635928542607484,-0.36458368485473897,-1.9590883055550976
2277829,0.0012075199317976152,0.10138195044510245,-0.02149869502733687,1.7103968158406035,-1.2102176683169625,-1.019853964877558
2277851,-0.02445523152431443,0.14163430021829618,-0.011240554029647153,-1.4816222566783657,-2.1779500587705534,1.0523246690403991
