timestamp,ax,ay,az,gx,gy,gz
2367171,-0.004242678040249093,0.01305072066744092,0.004744296496630555,0.08292876627203435,-0.2670850916983537,0.7501331952904449
2367193,0.00023891651522045147,-0.00599786565430314,-0.0009333010844105145,0.04978674868708659,-0.22936852690372955,0.10737391452664682
2367215,0.005212849322978821,-0.015772494375214458,-0.004892049211295132,-0.27064092554820757,-0.2706660834324482,-0.16984995372713083
2367237,0.009734467034712696,-0.012500526389242537,-0.006067260537113278,-0.8038953204528563,-0.3986650995164251,0.014106859094577918
2367259,0.01155051247490004,0.00032987677051168646,-0.004661441195114893,-1.1591655307622568,-0.5268087687790771,0.408742646988455
2367281,0.00874626802473631,0.014273873748761724,-0.0019531624695662965,-0.997789743326584,-0.5163529716230345,0.606825263941519
2367303,0.0015662390490590499,0.020329033468180525,0.0008104422668186548,-0.32670591314509323,-0.25798080282527297,0.3572664917938373
2367325,-0.006998110566794557,0.013744933358544304,0.0031502009143428763,0.4996014864915572,0.2483369138668149,-0.26079840411577654
2367347,-0.01250457887579204,-0.0026263934307012055,0.004759825830808921,1.0077878048028057,0.852039472613681,-0.924953740987069
2367369,-0.011744708080213157,-0.019345991787033515,0.004668148878731708,0.9115613897997722,1.2872562040782867,-1.2897659130759642
2367391,-0.0050653635931427665,-0.026582486844439788,0.0018566139366442047,0.3086773037826167,1.3015814877385374,-1.1707638703189618
2367413,0.0036522996136910514,-0.021163224720168784,-0.0031408277361005864,-0.40173697637437583,0.8210340460412506,-0.646162942566852
2367435,0.009652319000425957,-0.008535463168015156,-0.007943812901660812,-0.8360280188551806,0.02581253030699221,-0.03885558892122244
2367457,0.010503313355831557,0.0016682534136812912,-0.01006557005806596,-0.895656825387902,-0.751967341611726,0.2874763590206606
2367479,0.007127813097460013,0.002516257744223125,-0.008646955455374932,-0.7835274325975413,-1.2444051622192656,0.2145319138931226
2367501,0.0020893255702705326,-0.005775564026569775,-0.00437953566990057,-0.8194099947930609,-1.3867778878088084,-0.034837764383883585
2367523,-0.0027045411481744297,-0.016665833113062026,0.0015094099288834148,-1.2054222394889353,-1.2626348559830736,-0.10926822266259317
2367545,-0.0065823216925497904,-0.02306330899239769,0.0075159752663033,-1.8599654623342154,-0.9551097309783877,0.16516813400983732
2367567,-0.009143001572563755,-0.02378221136464296,0.011568380123064343,-2.4413967009067767,-0.48839186859072337,0.7162218577423748
2367589,-0.009563400088563176,-0.024618642341043415,0.01149440955715368,-2.6117157874043087,0.10563110747561327,1.4731204505142093
2367611,-0.0068862640595456995,-0.03217152028423922,0.006223358467874975,-2.3612600608851477,0.7160564171968884,2.620649724678308
2367633,-0.0005168532594651709,-0.04582675626752142,-0.0035605649874532875,-2.080074549386764,1.1597355798146027,4.4806326544479536
2367655,0.009193520282706235,-0.055855854706460824,-0.015782142274352273,-2.2575240372527716,1.2273066691722523,7.079646074374881
2367677,0.019681771210685664,-0.05028163348469204,-0.02753876583050623,-3.050141734862102,0.7317704568729193,9.895776557391994
2367699,0.0255535401164074,-0.025132243225167196,-0.035482728603471306,-4.091207927723537,-0.39402312342763257,12.09918699783921
2367721,0.021240115687391578,0.010548404767249633,-0.036787733619167984,-4.686785721086301,-1.955269408333352,13.0537744184236
2367743,0.005977974564280894,0.03895723657641015,-0.03079637162286853,-4.225005221515989,-3.4703783394916248,12.660958869638371
2367765,-0.014134448956821699,0.04333106851513064,-0.01966763936178718,-2.5504332121846054,-4.393452887363454,11.419365284205481
2367787,-0.03009637543048144,0.016838166655099955,-0.0067668152600957425,-0.17604014402946103,-4.435607047393639,10.322199362762966
2367809,-0.03650176772653481,-0.03272962672615761,0.005675887980406349,1.7785475214444086,-3.677030848065906,10.60965496578225
2367831,-0.03455551043662418,-0.08402203539061986,0.016944152937287803,2.0977810773990626,-2.380105207707289,13.23348429563096
2367853,-0.029737015928235796,-0.11166523514305349,0.02615300837352291,0.34554587057928476,-0.7440462087973984,18.142276754542223
2367875,-0.02725348872738518,-0.10255530428223159,0.03134580033871343,-2.5490217664261796,1.1504519945651084,24.021931760126396
2367897,-0.028862330673122827,-0.06673905920926386,0.03105949839289867,-4.730621579574304,3.2405360998145896,29.060058832095315
2367919,-0.0322529667545639,-0.03002840132930043,0.02625445873655681,-4.728818716908411,5.397360737099344,32.277640430005754
2367941,-0.03302330602887987,-0.012792538985404243,0.01978488588121549,-2.524395486599906,7.400249975692659,34.11391713542898
2367963,-0.02844767348940494,-0.015600668873882785,0.013952417891279057,0.5355522392614123,8.933671102569448,35.5573482915682
2367985,-0.019969913862298416,-0.02478817953022455,0.008887237116486316,2.717743201897514,9.662670549119623,36.69201991440225
2368007,-0.011450930703709457,-0.028257576807836308,0.0029335793469051855,2.859296363965817,9.421377693685672,36.30352919457539
2368029,-0.005169813981308849,-0.02385649131219312,-0.0056338250571160734,0.8411243812910698,8.368904073019324,33.22189984001022
2368051,-0.000948388688818522,-0.01701111063919344,-0.01625126840446741,-2.3179240702851507,6.937850146927126,28.200261356639068
2368073,0.0007089842225488769,-0.016006618152148787,-0.02438170592326043,-4.867779582222839,5.598761343930815,24.19505628206236
2368095,-0.003010144323970568,-0.027001698121278943,-0.023229925912472124,-5.528499575944173,4.623413499865253,24.168807113982066
2368117,-0.013536695600996353,-0.045580806656188626,-0.009549734963379844,-4.8187762987692695,4.013017734174777,28.140210635188385
2368139,-0.026171376034943458,-0.05251600292487351,0.011319056090855798,-4.880269003248175,3.6372368755398874,32.5664544585523
2368161,-0.03141004640152867,-0.026763496633240253,0.027640718061228347,-7.305880583897925,3.4628904065054305,33.31656977775037
2368183,-0.02272108318806321,0.031112121689944715,0.030332231191609986,-11.050495312064593,3.6289452514980685,29.679221773178856
2368205,-0.00321968356858328,0.09215284750201366,0.02039099198542511,-13.051830791192419,4.230045283384589,25.114881742637582
2368227,0.01595877256608107,0.1221847806979686,0.007126725305227551,-11.280783812154663,5.019391726780467,23.57115301729607
2368249,0.02486025557235097,0.11263244061266435,-0.0008608877658519779,-6.87536374002444,5.462426367828911,25.299024698242224
2368271,0.02321097652124487,0.08506504006023759,-0.0026230573947741698,-2.8869802859521343,5.233369522571046,26.96782099646782
2368293,0.01968688326692968,0.06556141308876488,-0.003193849698148981,-1.1858881918555673,4.602787113246644,25.778386746875114
2368315,0.022194184549844675,0.059793792473843047,-0.006393668610723649,-1.138690708288095,4.1514862301144175,22.44409530530192
2368337,0.029789950667628868,0.05537483628624646,-0.010747768898965507,-1.1743693691897192,4.098161831389546,19.692377121504677
2368359,0.035529547078339496,0.04255770635777329,-0.012474035583852178,-0.8162745628015112,4.082684805493298,18.788936568228607
2368381,0.03569071989251968,0.02541639382695869,-0.01061409810711547,-0.7585761570224047,3.641247339717548,18.578804041962
2368403,0.03303624426543579,0.013593652040543048,-0.007585064867811427,-1.4818674221641996,2.7303752922327686,17.606994524527213
2368425,0.0313614171529743,0.010333971770414705,-0.0054626415791863,-2.5406450898532835,1.7153571979467228,15.995612315976722
2368447,0.030644191349475366,0.012884486422272207,-0.003981586524552815,-3.290633659804829,0.9713508959484114,14.826194674591477
2368469,0.02921821017576938,0.021089356874171447,-0.00276825929319744,-3.7747856179406067,0.6000643527862898,14.445119033693663
2368491,0.02803541157188833,0.03900445288604161,-0.0034545940829889326,-4.476282722440492,0.46468319225463883,14.134830848971683
2368513,0.0298432848346342,0.06672288137388,-0.007731570532304025,-5.413522976820803,0.3634565328492493,13.197550794693822
2368535,0.03464673204812527,0.09556338788602448,-0.01420751469145708,-5.968867644809765,0.14809494889703656,11.637190240780821
2368557,0.03844177190267901,0.11508613415330161,-0.019125365762818772,-5.653554787814569,-0.2176601447667388,9.73984364834403
2368579,0.037407789129709795,0.12290022499717757,-0.02022302966494865,-4.6372941947454684,-0.6305679800502504,7.609484995001004
2368601,0.03218561914933829,0.12430470013377627,-0.018494626843364653,-3.3587797101523402,-0.9176146441285882,5.36321528922348
2368623,0.026810494179507805,0.12306063104825089,-0.015896473462834737,-1.9430994678564022,-1.0004144791904144,3.359919810931205
2368645,0.02383790147973761,0.11626501641076835,-0.012762051122759412,-0.31468742512331604,-0.9653758606752434,1.894871209695326
2368667,0.021813736885163738,0.10003735734992722,-0.008608271488225842,1.2648462112200274,-0.9165659445564016,0.8374869805498109
2368689,0.017781470206934727,0.07778396144524885,-0.004681168464297557,2.1681936135365114,-0.7978269133550776,-0.16465840467108278
2368711,0.011231484693789876,0.05948246341216582,-0.003943616233591484,2.0585754457339167,-0.444471636252616,-1.190694251229823
2368733,0.004904954549071151,0.052268350924179405,-0.00798173960666922,1.3860460877850787,0.1863230764255594,-1.9896615220030074
2368755,0.0020318156933477236,0.05315560176139853,-0.014734659161448305,1.033773999610676,0.9001214643972048,-2.4075270358917296
2368777,0.0031597983107689584,0.05201398074394059,-0.01987560878072582,1.4703536341277177,1.4078949846318607,-2.612175502739529
2368799,0.005789538914717949,0.04188653133753113,-0.020290009522849668,2.326070875546154,1.5711452522937266,-2.8176568646352704
2368821,0.0071423304741144965,0.026031397680955606,-0.016180239193333588,2.810316970845579,1.5145121848423964,-3.0613345039673905
2368843,0.006942457319958716,0.014435128087340064,-0.010223624299698648,2.4948606005235625,1.5317333448284276,-3.4483392863238107
2368865,0.0069865500377604434,0.014109809564866835,-0.005161263208893285,1.665889031439574,1.8835786364448825,-4.353731687754663
2368887,0.008336897549343974,0.02376983408298969,-0.0022691626849356064,0.982611225271178,2.6278952437931524,-5.98243402071405
2368909,0.010043272793914678,0.036627706449991596,-0.0015698193349843433,0.9138186569478219,3.5831488554281044,-7.76148035553999
2368931,0.010987512105957227,0.04565647342504139,-0.00259598385096421,1.4931028730683418,4.449985136982134,-8.59563583783746
2368953,0.011999329812901574,0.046623173405480445,-0.00466035523646344,2.402453317157972,4.975775961346473,-7.946323342560178
2368975,0.015106537091030287,0.039923955690984364,-0.0070011221720880975,3.1340355209839776,5.003663592559833,-6.428567986115378
2368997,0.020851141979646562,0.031089150381466604,-0.009154057433227208,3.234033248734037,4.446542723733471,-5.131399301814486
2369019,0.027110142738457105,0.02674607480109822,-0.01092385881182295,2.666857329231504,3.349634360907726,-4.526070785969514
2369041,0.030714301428014883,0.02803667909957991,-0.011764170269520981,1.950592039985694,1.983693805977467,-4.272509321851067
2369063,0.029978535313369494,0.02946609401993491,-0.010628544612421421,1.7402150186427696,0.7550825355194374,-3.9442124919852275
2369085,0.02584824631123959,0.025563366264096228,-0.007005758661025262,2.1991587159221027,-0.03819511737381652,-3.5651442808937546
2369107,0.020962164306719794,0.017620695386552518,-0.002129498866266345,2.8221581281931094,-0.3501920624624674,-3.3201038593041505
2369129,0.017599823404252663,0.01285584047568326,0.0013130898742099537,2.8624891275487117,-0.32255413125370413,-3.0325905371355764
2369151,0.016341828899384035,0.017271670513769658,0.0012303781243333763,1.92589698655834,-0.13344496514245532,-2.2762756646096176
2369173,0.01636177359751568,0.029564822491004575,-0.0018500127975413956,0.26295901355473206,0.10094125505795502,-0.9936810035050044
