timestamp,ax,ay,az,gx,gy,gz
2268831,0.0036346522880215024,-0.008014969472898799,0.006358819880265363,-0.8045221670552208,0.38450342837482543,0.6008054701862869
2268853,-0.005293129545799008,0.017696431851900674,-0.003507343950808777,-0.31585725829839967,0.32339008396355134,-0.1940488282640193
2268875,-0.007742689120162928,0.024701342478413973,-0.008856787893508683,0.4067651782954605,0.32131757654521337,-0.6846110243128913
2268897,-0.003196649628800335,0.010028134247872625,-0.007958975892348088,1.1222844387175113,0.2746145990864265,-0.8294286163909318
2268919,0.0031133592199165086,-0.012337415835208747,-0.0027590841747385866,1.2978670289813161,0.055399316790886735,-0.7758989669731186
2268941,0.005938430820427484,-0.02495966268682853,0.0027849836109466817,0.7345215248034315,-0.2491320632950643,-0.5913523262512562
2268963,0.004692053096076055,-0.021405611673580256,0.005618127181648479,-0.17021521381650448,-0.3980862519310703,-0.20154090687516923
2268985,0.0022621535364182026,-0.008310779826258188,0.005311426272264069,-0.8365227254482636,-0.3324187349746083,0.38305648134874926
2269007,0.00039985538042338703,0.004340939500395262,0.003282390775681533,-1.0383746802202987,-0.31199314603090766,0.9077278124148598
2269029,-0.002013468232947046,0.011970350449008583,0.0009102140782792767,-0.9110470676654655,-0.595469267799047,1.0633686351421716
2269051,-0.006002576928035492,0.014297168865163563,-0.0011207362119472568,-0.5659927255612888,-1.0488888825729037,0.8197478392619966
2269073,-0.009653638368230261,0.010085707240044336,-0.0022624780233977074,0.020163488628057134,-1.2428465210430284,0.47098819844155226
2269095,-0.009783291060117032,-0.0019137397084160966,-0.002248947051085058,0.6984557569318663,-0.9815115484242247,0.31392225011426766
2269117,-0.005937511936204959,-0.01746909760564634,-0.002010219597890591,1.0351527387458108,-0.614464714362457,0.3332154821845919
2269139,-0.001143854968963744,-0.028041424534201092,-0.003165245151753568,0.7636898046146561,-0.7211788107851917,0.2827217527047354
2269161,0.0018970358262078314,-0.031318078817855415,-0.005678441518675084,0.23701427040073914,-1.4918761647244287,0.16937159197579274
2269183,0.004327472278419238,-0.03868234319780094,-0.006458593209482648,0.09650405934934284,-2.4666872015619443,0.6997068699300254
2269205,0.00938698942060637,-0.06690467781200214,-0.0011024011755910088,0.3143167903752448,-2.9287007725925167,3.090883070761291
2269227,0.016868801630449314,-0.11845435997409239,0.012440931865921363,-0.2598537843369734,-2.5807554934504133,8.116787420625927
2269249,0.02065302850461954,-0.17068933004731926,0.03120139358856148,-3.0332087141532447,-1.8055460606163296,15.164844499790116
2269271,0.013614833841439142,-0.1894786786323152,0.04755969966160475,-8.139822876895993,-1.1958685164347067,22.394227440653275
2269293,-0.004331019611560225,-0.15868343344446478,0.05315824191386269,-13.864992496960184,-0.8507331079526244,28.069995773682695
2269315,-0.02428479959552121,-0.09698316999828549,0.04468822390488159,-17.849532364245416,-0.2759461891506045,31.75316236934685
2269337,-0.036256466160817,-0.04182891751062494,0.027292600063139133,-19.088909915149777,0.937310984297263,34.08915878449864
2269359,-0.03917518765143991,-0.013632189621923647,0.011562992509185065,-18.778648277627063,2.474225440985965,35.57314634159227
2269381,-0.041269344492067685,0.002175724027183316,0.0053315186372512886,-18.974460896625946,3.555808004002986,35.84701242195825
2269403,-0.04918603935105905,0.033579504308393474,0.007332533566227001,-20.171753055097113,3.8636596456131627,34.376572343286234
2269425,-0.057917830045926204,0.08406895209035276,0.009052839352607263,-20.305429183127895,3.992781211505112,31.684268268924136
2269447,-0.05447615230288678,0.12319312840967157,0.0032450088872435505,-16.605489562849698,4.747081166137062,29.513184527548493
2269469,-0.03341623432063655,0.11820641608505322,-0.009092015851486645,-8.787067002188456,5.982535222499132,29.281514403692935
2269491,-0.007011905675021616,0.07040857040021736,-0.019881667279018283,-0.20997885115334625,6.437673402944294,30.254746933540588
2269513,0.003848780356782696,0.015116316483574276,-0.021853768591346134,4.622839070655222,5.017733105819215,29.80634650355973
2269535,-0.009709306473079963,-0.012159258406767858,-0.015100810768553585,3.947828506776467,2.222073255601293,26.176690047641383
2269557,-0.03522524809212295,-0.004958809458505567,-0.005790350198583222,0.06532546460681316,-0.006116456812618104,20.93586983671454
2269579,-0.05187702061656793,0.016256049503926052,0.001004209888624513,-3.111426726072261,-0.039109209176298954,18.00344347885185
2269601,-0.05123441130483916,0.02787124285821061,0.0060035940466472825,-3.5913058094252164,1.8909593474737678,19.697561193988893
2269623,-0.042844517846732905,0.02233818244250572,0.012564626776243704,-2.509759142844471,3.9828426917115327,23.933998085257343
2269645,-0.04013377744598142,0.009759606893505387,0.019735059226278034,-2.2738961120949583,4.623729822204838,25.964340000110084
2269667,-0.044865424092398146,0.00603646531175274,0.021058959414937534,-3.8196969974059405,3.7572949812970466,23.222948717480588
2269689,-0.04796211036510351,0.017480529787357414,0.012356159678063252,-5.733740080256989,2.568101014842364,18.012879189136644
2269711,-0.04292674468542732,0.033025015007248325,-0.0006613499173933518,-6.069411241465751,2.0224572679654713,14.744992386943066
2269733,-0.034252246894884465,0.03354020615526519,-0.006078630304378458,-4.920211467801017,1.901910486111355,14.77397443513839
2269755,-0.032653275317046114,0.01385065370313365,0.0017188851312683598,-4.798646459641266,1.3109741799983978,14.973573076653768
2269777,-0.04467241963366937,-0.00537510779838918,0.015362655624455252,-8.029281236215356,0.05088082335378918,11.663383239607624
2269799,-0.066396930134534,0.00527110771507355,0.021948929202932073,-13.779730391578076,-0.6965528507134204,4.979715508526275
2269821,-0.08428255390208447,0.051358875426431416,0.01597408881844995,-18.208164476209465,0.664581218713068,-1.3015036790947965
2269843,-0.08300064859457347,0.10465776377614712,0.0031677548809792492,-18.112621810790927,4.274831426147921,-3.6784529325297406
2269865,-0.05799772313006896,0.13275967378677356,-0.007788020381526431,-14.43216617422214,8.06294794299732,-1.9946618354445917
2269887,-0.022911465922221676,0.13590885220692372,-0.014757727105232448,-11.519902823144815,9.370535589765597,0.9419320592983282
2269909,-8.991133178477828e-05,0.14429755420158313,-0.022197306934704463,-12.474886660720323,7.666041375124039,2.0714033414590274
2269931,0.0010990018788859482,0.17719078947399308,-0.03356530528628836,-15.607045108209691,5.356490525549816,0.6283272077421146
2269953,-0.005566187985322629,0.21684954026551467,-0.0463554833688965,-16.296254867968624,5.392443850329116,-1.3669811084393952
2269975,0.000637516793269454,0.23141222151097035,-0.05496283413703655,-12.193215561133616,8.062768183932832,-1.2085292900838658
2269997,0.022583219957200317,0.21461799660343392,-0.05655408383374669,-5.600863024656367,10.6135772027696,1.4974845179044916
2270019,0.04247997042699782,0.18995057079571703,-0.05285985232673682,-0.5033583925113938,10.196258165821883,4.152937961119942
2270041,0.043756043527816486,0.1781410834121941,-0.04696175871319018,1.7094398156935593,6.7935647210903785,3.921369670130728
2270063,0.029164037650371167,0.17410892038314724,-0.03989828838008339,2.790999013964831,2.934050747031096,0.8044072390902551
2270085,0.0144734716472334,0.1604513230387332,-0.031079590445451222,4.62546894773722,0.8867598557006952,-2.6770487785820993
2270107,0.009701527313992282,0.13367652815422887,-0.021042362593057445,6.914379397707613,0.7182221325360012,-4.5040284364354894
2270129,0.011331570820737954,0.10770646876201745,-0.012207861386108453,8.04620022959082,1.022606885320161,-4.840929532756462
2270151,0.010158270270810607,0.09507193850840988,-0.00669308940654896,7.3099061380314945,0.8299695025381997,-4.741348871073181
2270173,0.0019758274545260196,0.09379783132552674,-0.004535788876040023,5.5593588846360005,0.36983518294003254,-4.45873361755093
2270195,-0.00903577732497387,0.09363257270729389,-0.004619207137388977,4.06875388189866,0.32028496651782346,-3.724229962560821
2270217,-0.014535382220349563,0.08853024501042192,-0.006551208682625281,3.370405997279819,0.8580186138712131,-2.84020809799912
2270239,-0.009525050402031698,0.08018587389146394,-0.010854306763916594,3.1580678119101626,1.5322897055820193,-2.473937364990779
2270261,0.0027890462285072395,0.07321763072462441,-0.017344753617867806,2.8464026643181013,1.8083114358427803,-2.588563829168956
2270283,0.013424266285534413,0.07045568326860388,-0.02376326172821541,2.070822101503042,1.5342997246057457,-2.4807414291570526
2270305,0.015222391907719986,0.07206799010108633,-0.026599694438971973,0.8857472802987671,0.8791945520941815,-2.049579850301161
2270327,0.00802422576862098,0.0766583356703065,-0.023851064086274455,-0.2867151864085923,-0.01317513457433872,-2.2548296005617288
2270349,-0.0028149429616658533,0.08214780719803975,-0.0169920966853196,-0.8841010116954967,-1.1031932675705953,-3.7499559882296363
2270371,-0.011636551257146072,0.086446211024309,-0.009844137963055844,-0.5315721441273715,-2.2234535176930104,-5.544370769092813
2270393,-0.016244956474837594,0.08843292019047465,-0.0055108502859299606,0.6867422565002315,-3.0390638889699684,-5.834301601726157
2270415,-0.01781839905628349,0.08822336522127024,-0.004564937184120327,2.237188800916371,-3.360031447269042,-4.098386618294173
2270437,-0.01819117747519709,0.08593858274219718,-0.0056649755719479136,3.4765229780244487,-3.3160262084558507,-1.6865134736380665
2270459,-0.017805744052428907,0.08109917656518356,-0.0072106503973119905,4.033425698981134,-3.104632097298549,-0.25999720899942824
2270481,-0.01628629787924421,0.07445529551503831,-0.008488008730413913,3.927156795234927,-2.7162237721812734,-0.21552085572028112
2270503,-0.014029289165393513,0.06925546596168666,-0.009708835880801002,3.4802861543030774,-2.0581098994098763,-0.7544264898587681
2270525,-0.012456689400298539,0.06846936418273328,-0.011211332086621461,3.20014156471926,-1.2990021105495306,-0.9919422359846709
2270547,-0.013190117148624125,0.07073178714030867,-0.01276327703153114,3.5527969663291383,-0.9439110894034473,-0.7593640819243344
2270569,-0.017160527396776176,0.07048830463396297,-0.013634123874885589,4.585796585471534,-1.4257559689902903,-0.5711312030460403
2270591,-0.023267814537289207,0.06286112917948494,-0.013236809735590842,5.737734031674184,-2.5433389923015537,-0.9736437674890198
2270613,-0.027614673936566327,0.04868989814973647,-0.01173546850841829,6.168505050018429,-3.4142974080000372,-1.8622609789731839
2270635,-0.02622105397251261,0.0349156110916318,-0.01001797847330058,5.40783070439048,-3.205172252475512,-2.4522286539583398
2270657,-0.01974667075805672,0.02932573434960686,-0.009002238828376148,3.7467028056992024,-1.941961770127584,-2.0271372112837827
2270679,-0.013715318445902914,0.03429129658949142,-0.009060792938474567,2.017505276375339,-0.46370603097041496,-0.7119451521167418
2270701,-0.01286618629371882,0.04563129247352226,-0.010016233754429024,0.9600774831640869,0.4115755442403209,0.5646061006750945
2270723,-0.016847270341106647,0.057032432643078314,-0.011320604668644055,0.7354621322350924,0.5363089028100049,0.8620842708881802
2270745,-0.021972033110311116,0.06438634218649142,-0.012301089916785862,0.992869091437527,0.3195091363092205,-0.027408029776902175
2270767,-0.02488283170978987,0.06589756262649389,-0.012719948769664861,1.3425091831271432,0.21450668997888706,-1.4820238071120098
2270789,-0.023536212013156768,0.06018085234522975,-0.01317911029490208,1.7010681577596245,0.4070837682558247,-2.5444200320329657
2270811,-0.017081407377359727,0.04658762674759986,-0.014569302506381722,2.1956250396264645,0.8481598796606764,-2.6056676999477557
2270833,-0.006876361232495728,0.027444731029349356,-0.016956138023273205,2.8554007778974304,1.40945810229084,-1.8432839365727045
