timestamp,ax,ay,az,gx,gy,gz
2346095,0.008546600016849584,-0.006588454823132464,-0.009764247921418624,-0.1661119332425595,-0.27931563484264665,-0.7968549928364215
2346117,0.0026066144924090607,-0.001594317563406717,-0.006840486697329224,-0.5981140517461354,-0.36164374779667563,-0.6283386089615018
2346139,-0.0012593843013540273,0.0022371394924227237,-0.0035027886375759315,-0.8243684601842124,-0.35182593029139436,-0.3176573112032747
2346161,-0.002401274659019785,0.0039827962952554705,0.00034882388273272324,-0.7394517267408595,-0.24488294740912575,0.12237840607461815
2346183,-0.0018715603168586142,0.003464345594215065,0.004263895773312971,-0.3820698261696519,-0.11405200462541681,0.5118998562081853
2346205,-0.0013219656256928218,0.0015516866744629328,0.007168239172479107,0.10085758624693213,-0.013647479238683742,0.6499846799196635
2346227,-0.0014753165543837697,-0.0003595473448636788,0.007722146112401165,0.531396325587788,0.0850108038024659,0.4875359002286749
2346249,-0.0016667859926078265,-0.0013536572419962426,0.005273844395773032,0.7610641012880291,0.23283837786984474,0.17722852986736753
2346271,-0.0009684887921797249,-0.001386398455800076,0.0007641103545233221,0.7123218901924742,0.39523479983480936,-0.028969592090238493
2346293,0.0004635694293782088,-0.0007898180600734172,-0.003572596605769193,0.4301251161567428,0.4569742798459608,0.04720859546793296
2346315,0.0015179437182801104,0.00013867659182706567,-0.005750234896557639,0.10264328293087924,0.34428343726601934,0.38225437731811807
2346337,0.0014031379282393119,0.0008983838343881787,-0.005274615694157355,-0.032955300104858073,0.0971016685640251,0.7742038409622292
2346359,0.0002674111857090115,0.0007100472462426669,-0.002900630727474727,0.13044298528294795,-0.1911889063181516,1.021142936584642
2346381,-0.0013560775522803454,-0.0007179536907900291,0.0004059464377646887,0.47498282503588574,-0.4523604627021302,1.0821764682728452
2346403,-0.003091879812787377,-0.0025452752816590074,0.0038953024119657686,0.7611545052386393,-0.635133494265765,1.0491411957340098
2346425,-0.004628107114203318,-0.0035893066929298567,0.006663884589688088,0.8296178647249765,-0.6720234906820615,0.9953480136992122
2346447,-0.00566815084277469,-0.0038051278257471184,0.007559273139023324,0.6925268784397334,-0.5165941308380196,0.9060369758786406
2346469,-0.006261775713329177,-0.0043061059480818675,0.006028777001086227,0.4530435082563071,-0.2148111357114187,0.7546314711533607
2346491,-0.006854548088791594,-0.005863693128679012,0.00304690836688703,0.20495823616908987,0.1000234250816224,0.6079414176125172
2346513,-0.007647639487739669,-0.008585580241633032,0.000687924651670476,0.033147406303871904,0.3123488259542016,0.6325824726653414
2346535,-0.007846484888616606,-0.013862875752919689,0.0004006081451704914,0.008585464697232544,0.42108055530950805,0.9821645554823664
2346557,-0.005793901822910277,-0.025066423768125137,0.001798274310354052,0.03600996996158193,0.5055797695970532,1.6573038650439151
2346579,-0.0004165002633406455,-0.04325436318272234,0.0032036613774244385,-0.30250458968327915,0.5843634211861092,2.4784409324376004
2346601,0.007036766806841111,-0.06117425284744381,0.0029343914368232115,-1.5527674990746267,0.5445546813414074,3.242843214686283
2346623,0.013053491500895787,-0.06484883958223824,-0.0002895496105277079,-3.7798848278589503,0.26187843008334644,3.9571788759781255
2346645,0.014496764032807152,-0.04609305135618804,-0.0075073849659772875,-6.107327322482871,-0.22767661102442907,4.887154871308905
2346667,0.011470997758199283,-0.014646541477357337,-0.018641274195254458,-7.121704249364182,-0.76784999295334,6.284817289338929
2346689,0.006898582398942142,0.0059028822232955625,-0.030689428118350764,-6.05296664235095,-1.3412006497031326,8.047738794567758
2346711,0.002612231489531271,-0.0017583747221997356,-0.03755044800775365,-3.624985250165015,-2.19575447985454,9.76538569098378
2346733,-0.003521268491442297,-0.03219212486343546,-0.03328367843564544,-1.599898875492343,-3.554805967434649,11.195801261242083
2346755,-0.015190375221396466,-0.06208029033495824,-0.016735135974235735,-1.3748437547992274,-5.149569805969904,12.601860485697758
2346777,-0.032102706196883476,-0.07152992800564756,0.006867896806183717,-2.9621829945445164,-6.156581850276413,14.466819320975931
2346799,-0.04826677884459873,-0.060219743066440415,0.029215271176690365,-5.165013632099924,-5.759131117080653,16.924043854685554
2346821,-0.05701507184616332,-0.04404301677551155,0.0442369582461409,-6.57667113344526,-3.8317668007304366,19.627731165027914
2346843,-0.057345846969930565,-0.038081805573564456,0.05091005252558481,-6.575005120795999,-1.0301834966720693,22.132057799058437
2346865,-0.054099859327077504,-0.04258827671167034,0.0516613257179071,-5.747569900613556,1.8306780283027588,24.13403071224299
2346887,-0.051295393275415255,-0.04331694646121227,0.04831669557640639,-5.4428805149525505,4.4506149518338995,25.294024284492743
2346909,-0.04591331705469477,-0.02548219083578016,0.03955794279262798,-6.5605815011921145,7.042634345094479,25.186357294907474
2346931,-0.029983716163747266,0.009631882665433324,0.02277799304015375,-8.567930636316413,9.68859309049188,23.80950878115303
2346953,-0.0005006698597006518,0.04070270555341301,-0.0009103428978266483,-9.95875193273078,11.827720426570533,22.049759729793475
2346975,0.03299115006661861,0.042378673100137564,-0.023903920315302432,-9.9288871975391,12.525622875921918,21.17451185456618
2346997,0.052998395847096605,0.009302922530258951,-0.03578124379228651,-9.400107285949261,11.320888726031047,21.590186353614317
2347019,0.04816052165899161,-0.03554304173255446,-0.03080018275674534,-10.047638717694447,8.8009207565814,22.296189802105673
2347041,0.02286439341892251,-0.05860489691079899,-0.012086450148574556,-12.297446887457665,6.283825584277754,21.908218699040766
2347063,-0.007074087731382675,-0.043062849945106896,0.01078451213854427,-14.530708977253736,4.861724062280608,20.24647170545005
2347085,-0.02713651243926745,0.0005755979101824591,0.027396458836245318,-14.407812991381801,4.711308394202146,18.680940588007434
2347107,-0.0324925653306637,0.046996518085059585,0.031092146914740975,-10.888844982148909,5.294571121830086,18.827034334337977
2347129,-0.026517409505199093,0.07411185368169242,0.021780068298826744,-4.968729419707355,6.108437641753853,20.941186781522
2347151,-0.014545573373654742,0.07164592034725706,0.006206146458071931,1.1205208664672326,7.058046887763467,23.41070865845725
2347173,-0.00024120198496066893,0.04438068083184798,-0.006649307852070621,5.04500816965266,8.07149698322979,23.667759595478415
2347195,0.01395670291496298,0.014228506078836606,-0.013114751054582164,5.296484544334429,8.645444462506559,20.098508111916964
2347217,0.026147832277254007,0.010259782284772909,-0.017379660968686938,2.1391390247099196,8.15255981546954,13.790557504343164
2347239,0.036067220144217434,0.044406887460138635,-0.025195902451326038,-2.120302002629029,6.608424516236194,8.316601656906828
2347261,0.04492786019083473,0.09793018915124757,-0.035997753007466576,-4.593733649030261,4.783224767565707,6.968986608949179
2347283,0.0520784430917335,0.1393307931625064,-0.042874338273322564,-4.012579142008329,3.390752251003808,9.738554239419544
2347305,0.05326456916416357,0.15412071698658386,-0.03980954886882121,-1.2562873017818483,2.432497223862299,13.252327263155212
2347327,0.04531163857764385,0.1504640869358748,-0.027482984365552982,2.1806475960922045,1.5578977793123698,13.97867822982953
2347349,0.03232393562254651,0.1391982598388695,-0.011950895571407142,5.5327153024488736,0.8097871785120032,11.454871075184807
2347371,0.02396954540229665,0.12051936948294865,0.001193694000828812,8.404290496808406,0.624851243185718,8.283968515112536
2347393,0.026266303095363455,0.0940800355611428,0.0106015163632349,9.943358888843814,1.1591025685650034,7.164693119252366
2347415,0.03580246274141954,0.07221414350547897,0.017496689372340234,9.280272832965073,1.997073002376096,8.246805160630691
2347437,0.044108183254657186,0.07260900076757316,0.021526390712980313,6.776175981894793,2.648063579288805,9.416983079954285
2347459,0.04658301026004002,0.09729166519749995,0.019827586744594543,4.239468103173175,3.0844687329828475,8.787594118109375
2347481,0.046303097304613794,0.12488770661355486,0.010866281596468644,3.4952861024770225,3.5946074200729736,6.486990197860896
2347503,0.04972494752984651,0.12872776588506016,-0.0017587441645230029,4.6790581475733415,4.18445482251081,4.03515514711031
2347525,0.05928928870634023,0.10335602287942082,-0.01105091189161377,6.040766986182864,4.336097305371195,2.497430539002289
2347547,0.07010761968345851,0.07067244997930063,-0.01288461850934619,5.593943120957289,3.495054841826852,1.7170751574816379
2347569,0.0737609637658764,0.05797144827742088,-0.009845209850781134,3.0643007974323377,1.7635297355369346,1.0889586005622367
2347591,0.06577545415636901,0.07078196663601545,-0.008145637943350253,0.18705312073515498,-0.018702566588271158,0.3597713933726319
2347613,0.05020157763178989,0.08856377242445973,-0.01111622747289943,-0.9407065899983307,-0.9375448949603122,-0.48960876129156194
2347635,0.03717790147563801,0.08606757011454527,-0.016256435471416097,0.23075518175045126,-0.7382352144672869,-1.5473884125327153
2347657,0.0349945644091043,0.05748658117585074,-0.01829053754161419,2.3375314869292634,0.02986583727154878,-2.7355218760600084
2347679,0.04303983339132537,0.020502341113527008,-0.014349929241749226,3.4353364061156864,0.49231244009420616,-3.545489679449784
2347701,0.05210502808904229,-0.001274689743833032,-0.006118460877748381,2.6697272078237457,0.11068466629858612,-3.4313027525056174
2347723,0.05217420694087385,0.0010205249830366437,0.0023308190648345817,0.8311462799671923,-0.9625040256802114,-2.4960819394307068
2347745,0.04042612684877404,0.017004903092886353,0.008061074458788543,-0.5273311811576573,-2.0531909619232334,-1.5505536785461085
2347767,0.02244596357348931,0.03026782542887576,0.010729213563667468,-0.4560854255299354,-2.4781400032563683,-1.3527114955127704
2347789,0.00728763584085214,0.03320174982886503,0.011434666414629004,0.7992953598276523,-1.9889458940825726,-1.8546008466999593
2347811,0.0018840940962918744,0.028910491284844925,0.01103869550780292,2.3067410030998503,-0.8742615520361862,-2.290908539020587
2347833,0.007810919385503896,0.022994115727706283,0.009716129185889006,3.2788710123690903,0.2589731364055787,-1.9762889938698303
2347855,0.02051363784631458,0.01783108470316527,0.007458504975270575,3.4306054409370597,0.8631553396709414,-0.9307769593080312
2347877,0.03190714942934029,0.013761460893767972,0.004503870596490214,2.8846214975405338,0.7891890160669109,0.2614114124334649
2347899,0.03608384741654204,0.011244046613682473,0.0015382663160751241,2.0123396051308835,0.34513453577354897,1.0815503830937896
2347921,0.03329633080793918,0.010355185423921987,-0.0002743940648988185,1.2555839745009971,-0.025244013144703988,1.4735789591979946
2347943,0.027867567370230318,0.010699461591907555,3.196423746875982e-06,0.8486527515572055,-0.15238623339725094,1.686527133728309
2347965,0.023131227744006194,0.013037627563492126,0.001816382584336307,0.6958268234668223,-0.1950963138670899,1.9015701340246467
2347987,0.019825124500203895,0.01881153481462268,0.0030280463718431777,0.6263202083978872,-0.3233118842520861,2.095524858740836
2348009,0.01822906505007697,0.0265535949562632,0.001953871746400439,0.6812159338879126,-0.48722627929804135,2.1568488407922835
2348031,0.019134290817293908,0.03038451491353604,-0.00040602469359553154,0.9807854258597701,-0.5524693468525875,1.9929337873357942
2348053,0.022366990153704875,0.023827672447378292,-0.000723092986603281,1.397263360886213,-0.5346048832947513,1.5410394628758812
2348075,0.02636532663709833,0.00500777446989344,0.003650477377273533,1.6127220319500346,-0.5761501774734331,0.7902100477278009
2348097,0.030012355795741533,-0.021812331657572098,0.011939844938188896,1.5352068931733573,-0.7336352344416767,-0.16023593714254347
