timestamp,ax,ay,az,gx,gy,gz
2332037,0.0115625023254781,-0.015548084606459942,-0.0032634142354351194,-0.46402574364401244,-0.5178308030928958,0.9191746384543193
2332059,-0.0005143916800424682,-0.006921177584265571,0.001646514411135658,-0.5056976157775018,-0.807183790147655,0.46003914188592127
2332081,-0.008276843357159294,-0.00048299033727510073,0.004785322315227612,-0.40147203084062794,-0.7687188003665428,0.26598351119569924
2332103,-0.009565480948847037,0.002915770662607813,0.004907645118289901,-0.16231798048955082,-0.3398184038209356,0.36641636255234644
2332125,-0.005515184288786753,0.004206539062037288,0.0021553970052717464,0.06425129992384844,0.24276988511222936,0.5253028087835601
2332147,0.0002527575481542274,0.004990147751989365,-0.0015741415177102807,0.1620702962817773,0.6498615848577538,0.4459346576601626
2332169,0.004031800248363241,0.0058923178734006446,-0.0037257563917634058,0.1659722536784153,0.7139345278456039,0.03362349527301748
2332191,0.004385662732664974,0.006250325272409127,-0.00312722988518668,0.20826177574246887,0.5298325005616955,-0.5250393698267672
2332213,0.0027983422752063105,0.005069913804728825,-0.0010819396830258742,0.36915585565216386,0.3427235541355859,-0.9505802440786394
2332235,0.0020589660522433604,0.0014379778661725206,-0.00020718080053400167,0.5938392594093104,0.3240103888182754,-1.1265143013324903
2332257,0.0034908525293814037,-0.0056541681597569865,-0.0018966849373164584,0.7288927450946616,0.42457501110868034,-1.1278004696950827
2332279,0.005514969869576546,-0.016145017036913848,-0.0049226246820216315,0.6074045561850986,0.44330998068397437,-1.0089859751991481
2332301,0.005228569423125076,-0.026985807163630877,-0.00677871528513873,0.13151003660588623,0.25296726617857446,-0.6658967659049535
2332323,0.0016414386469211738,-0.03329647887469807,-0.006415021942433756,-0.6440381170775977,-0.047488304679219745,0.020663016577312506
2332345,-0.0026940475770588414,-0.03332846760316314,-0.005359376804682314,-1.4825224436136353,-0.22309402334552095,0.9650236419271809
2332367,-0.003403151164489821,-0.031690325949459586,-0.006071758973439808,-2.1034205939869395,-0.15341488401671177,1.9061500422785675
2332389,0.0019459814652608735,-0.03566212819961228,-0.009425077666288216,-2.4599823527761595,0.004072584695257705,2.662758898839041
2332411,0.011048430886895003,-0.047058382164846264,-0.013781617018913884,-2.888209961207779,-0.09213038713877782,3.2883322670928115
2332433,0.017656566178819427,-0.05752167144661415,-0.01625259619655768,-3.852643303623122,-0.6698009729664453,3.9602232203732295
2332455,0.016166232677002474,-0.0528044571328458,-0.014945963476719216,-5.376679704563174,-1.5866319428378095,4.786358935950284
2332477,0.006529603820179273,-0.02463545580656105,-0.01042248550626203,-6.698864793835561,-2.3731774704239954,5.744451434881822
2332499,-0.005465749202639817,0.018299871187682625,-0.005053094033504129,-6.714767249557041,-2.591589959816727,6.698881299832708
2332521,-0.013527820770348059,0.05167027527261901,-0.0007048487718294559,-5.0569908443694835,-2.189092716873961,7.369661596775419
2332543,-0.01648961202011028,0.05295962566607761,0.0028952495728612176,-2.7766643960422988,-1.477328574285973,7.395728395138752
2332565,-0.01813622329713904,0.02211334104590084,0.007231251625561332,-1.6745143043624768,-0.7594245471020805,6.686140192702797
2332587,-0.021677577215975245,-0.01583828993982964,0.01253321306696258,-2.68511866291205,-0.03227651516879365,5.786054250725724
2332609,-0.0254039174134751,-0.031933089997391265,0.01666636780538058,-4.919513069191298,0.9049901779332564,5.680524290922876
2332631,-0.024353852845357148,-0.018712262153039946,0.01674166859540143,-6.460188760880103,2.099786283985674,6.979344592034593
2332653,-0.01582025872044952,0.005013701429955453,0.011786620788939134,-6.214952655560162,3.293294503092855,9.21228612580036
2332675,-0.0024773536010687667,0.01371301179815676,0.0036799606719184904,-5.039127051983323,4.140420695696859,10.96954542977191
2332697,0.010106003383313857,-0.0011812593598490124,-0.004603150120572094,-5.064680908539126,4.517185393256498,10.81885324115135
2332719,0.018471697505756633,-0.02479670622654366,-0.011618276277127231,-7.880093476114049,4.544342670807312,8.251815908665895
2332741,0.023185227897995056,-0.032118155940690896,-0.01833503486329088,-13.14454840743034,4.331256246013747,3.9985810685601177
2332763,0.026266749839016383,-0.007768387843850578,-0.02651508605158179,-18.648586702610288,3.796187607751735,-0.3572156520426904
2332785,0.0282530873516802,0.041865370504476626,-0.03626691434290878,-21.63529867055871,2.7955589774619627,-3.1364821785415433
2332807,0.02845865074278318,0.09161387061167284,-0.04514976633107157,-20.52638823278425,1.3631958474330474,-3.445130491164773
2332829,0.026738460487360113,0.11492507504625576,-0.049670350389095355,-16.079713338847714,-0.2836942460875594,-1.913974800865453
2332851,0.02328232723955105,0.10396377105866476,-0.04771361168960216,-11.073915055335332,-1.9588323817790356,-0.572274813496865
2332873,0.016978790931509724,0.0746309281569091,-0.039581141330489115,-8.330825169661088,-3.5863711879540747,-1.2264427808279557
2332895,0.005747864103301325,0.05049436120467151,-0.026889692944867094,-8.441941039970313,-4.992836011941103,-3.3166855863451215
2332917,-0.010602354471303255,0.04143165302450094,-0.010992766789021322,-9.394457220713635,-5.7324336163785015,-3.725816510750495
2332939,-0.02841780996500272,0.038770725543263614,0.0069453208240595945,-8.715287850252654,-5.292344723931162,0.36784667578606334
2332961,-0.04194248614583584,0.029816461483668146,0.024316364076566843,-5.98358090697592,-3.5225398689427334,8.182123965053501
2332983,-0.04734739690244195,0.013150120286057311,0.03641511033481477,-2.9928039680072662,-0.8095241527487023,15.522038853179518
2333005,-0.04501962096750381,-0.002585813408493467,0.03879157855018545,-1.5298913128656744,2.1918361402385105,18.796039282511966
2333027,-0.038038231288830764,-0.012544361177823747,0.0311548392787664,-1.4873407996344576,4.966792745491828,18.50360486119425
2333049,-0.028828337597664472,-0.023327219895425393,0.018725037101322044,-1.47063751025039,7.30577380597345,18.179231185962976
2333071,-0.017388755704563653,-0.043644639441876326,0.008661963624377546,-1.0362736704531594,9.144511535328162,20.088516623668895
2333093,-0.0024201639913718626,-0.06783653559026784,0.0042423823284735655,-1.8014424438894185,10.283383093792954,22.812655276271734
2333115,0.015597771040605155,-0.07258001127168702,0.0026199279556799017,-5.8773001611884395,10.27859567815537,23.467721977552657
2333137,0.031648822578483206,-0.03643284929837257,-0.0008339049441422866,-13.057197418990185,8.718917430077722,21.56021710833128
2333159,0.03725453032757464,0.03292532728660962,-0.0057989694182963075,-19.934391553125607,5.787266082925516,19.541912428629555
2333181,0.027152252553200754,0.09596434424025685,-0.006246088607020112,-22.53866189575227,2.5376690738256196,19.488888517935756
2333203,0.0064771397426294204,0.11728309541644306,0.0016287341898540912,-20.15891073563882,0.33915887556966573,20.306387081111705
2333225,-0.010467251131083773,0.10586480740531162,0.011595152746513803,-15.985805685719157,-0.1518969944078775,19.02940273286679
2333247,-0.010824242597301074,0.10659321697620004,0.011103723950137173,-13.436560619526174,0.6224512322042401,14.566888984783425
2333269,0.00709629433075806,0.145976312431808,-0.005469847919874547,-12.468504135057316,1.7794199784284324,9.37738434653247
2333291,0.03405059905425035,0.2006719920176966,-0.029592543226614622,-10.451458461273848,2.756208363359034,7.105971200892282
2333313,0.05753284481641467,0.23078941135810127,-0.04677182808243966,-6.085224460390508,3.307444692280265,8.7548430394512
2333335,0.06904832006128564,0.23008308722500664,-0.05056033852230474,-0.8730795641529447,3.203506920236342,11.561989228355081
2333357,0.06762023692739744,0.2250112131587555,-0.04625596484159392,3.3601030627240904,2.4083743952829915,11.9000754714958
2333379,0.05899127632833204,0.23219083792472126,-0.04178970908823824,6.713301153569419,1.3709719598460537,9.095863523264791
2333401,0.04994076870309681,0.2385867796025976,-0.03814501979174296,10.111959683948092,0.6825773117991548,5.884873854068293
2333423,0.042179680488497934,0.22636142059853057,-0.030234871936195465,13.157284860121436,0.4988487139637338,5.038249354212352
2333445,0.03361083546777145,0.20044603892004503,-0.015541187496376127,14.374383771306563,0.6213831265769105,6.289627267722953
2333467,0.025532751006467805,0.18201092937309044,0.0008794689954830608,13.297149332612117,1.007199383002971,7.130779438482918
2333489,0.024593638555514725,0.18189169175444111,0.010905804122158955,11.287323700241187,1.778964259977705,6.003983799375929
2333511,0.03515326459312581,0.1891974175415984,0.011534880003924058,10.079963847990006,2.746417592999593,3.7550525076881605
2333533,0.05208229246177344,0.18527373969479613,0.007144211628610685,10.03080788554436,3.3335727115262026,2.0661687176969408
2333555,0.06439405178223433,0.16363917403282238,0.003877340681168574,10.049422466729403,3.1818349566514272,1.3958009001177505
2333577,0.06584058456788756,0.13489394528662962,0.0033429741212028853,8.986885771486865,2.6119840813639645,0.8578222000311468
2333599,0.059700816004460325,0.11511743422252545,0.0026902232434556825,6.815155208670377,2.2496005345289705,-0.41410291694564755
2333621,0.0531928791654368,0.11168724885485244,-0.0004089168029605563,4.545472490567446,2.275533974465496,-2.3832693888158256
2333643,0.050104174697741685,0.11884606282538737,-0.004967493405812304,3.2648695866128303,2.286504578074781,-4.435722632983334
2333665,0.050209169778769845,0.12430885467153878,-0.008957709210563974,3.303384085060854,1.8865849500829086,-6.0051413542632766
2333687,0.05283967735739145,0.1197210019242591,-0.012225774086266532,4.124375092930542,1.1501999149422892,-6.7311226124216015
2333709,0.05736921539301917,0.10607746835368784,-0.015608260499300183,4.8324099691296185,0.4005489512953272,-6.448365380637465
2333731,0.06077466479725967,0.09068507347423108,-0.01820557384569383,4.8052078656394945,-0.23866312314667798,-5.367197395307414
2333753,0.05820540608007586,0.08083819870661246,-0.017678993307208,3.9976119984961063,-0.8594550931420448,-4.109839491387598
2333775,0.04773752331556946,0.08057718280793098,-0.013716395676339792,2.8450255823480286,-1.4317331936690274,-3.319736082083727
2333797,0.03374305427248392,0.08935118408543219,-0.009563806936801875,2.0086346072811097,-1.6729271417167029,-3.2445527646535526
2333819,0.024332598200720458,0.09955375223037609,-0.008624595174116236,2.071803828767447,-1.3386305875329256,-3.715925209200475
2333841,0.024667265613031387,0.09820094918389419,-0.010090433176432404,3.098737335561941,-0.5828098598103922,-4.3426343114889
2333863,0.03223187676950118,0.07826900469903796,-0.009675794147748353,4.310556713754553,0.05471568990306315,-4.623879864118367
2333885,0.039037139233069916,0.04971204789855829,-0.005149801806938091,4.506818365657683,0.08650531354987645,-4.1196121383134985
2333907,0.0394765100758841,0.03332550674079529,0.0002750695982268744,3.2118929194220334,-0.45900505806848896,-2.802928216165875
2333929,0.03588440720050308,0.040227883694048935,0.0012342632790483153,1.3616628621056446,-1.0394438391546201,-1.2252246687142312
2333951,0.034995643078806926,0.06070419055898067,-0.0037552741061973663,0.49423352749438865,-1.124845840534711,-0.1343972198644006
2333973,0.03872418334305474,0.07588368619263293,-0.010663004674764595,1.1387970204381044,-0.732750822324488,0.14338200021151792
2333995,0.04036138435680786,0.07682871976271687,-0.014021946162224155,2.2401560931589835,-0.40472982635327315,-0.0999218554059651
2334017,0.03163420436865149,0.06838055607515735,-0.011553075059187795,2.3523575901907248,-0.6494952281095344,-0.35846939533586564
2334039,0.012868329666309356,0.05781447143369778,-0.005073283792259766,1.2589210541607225,-1.4344314765215933,-0.43403821386858055
