timestamp,ax,ay,az,gx,gy,gz
2937147,0.010418246294583513,-0.011953340342085103,-0.0016981572783665107,0.4128929218659612,-0.20550318710956955,0.5880355946931829
2937169,0.008870672489442876,-0.016250997678613825,-0.0035317573760869033,-0.42723104243101984,-0.6217660421265463,0.5938454139923277
2937191,0.003302336381585806,-0.015419164184374596,-0.0022402087951819455,-1.1511931034183427,-1.091202584130387,0.4594112443230631
2937213,-0.005848427629204823,-0.008076545710156797,0.0025293884311410183,-1.5220980280760559,-1.3028214530559277,0.31399972479433635
2937235,-0.013455549902577753,0.0026847213540952515,0.007666884848501813,-1.3245087340543986,-0.8471698115055977,0.3482239575634607
2937257,-0.01431156369727782,0.011780525790186437,0.009048129966896225,-0.605412628099548,0.19454887290833914,0.44619794449288647
2937279,-0.008083882008515949,0.01532880604603411,0.005289979174707292,0.31104075383922547,1.1594157270347207,0.2535759650333061
2937301,0.0007358085987607523,0.012523465422167349,-0.0010397389713346136,1.0424840410840657,1.3965165009183331,-0.3867823647916559
2937323,0.007470989512376956,0.006084849118768168,-0.006142653408482689,1.362775019122039,0.8545869033383934,-1.2297848608042012
2937345,0.010854640394785823,0.0010675296914232967,-0.00846908451161454,1.2840721434616855,0.01716728296784497,-1.901338723686452
2937367,0.012048394483345298,0.0016070457581743361,-0.009139644277601134,1.0264475420508077,-0.652357877986912,-2.2699550127031043
2937389,0.011457299127884343,0.007495877711593778,-0.0094332012056443,0.893971819160489,-1.0818719036994984,-2.4838120031557738
2937411,0.007875686739198803,0.013905351714445407,-0.008816633759485945,1.0971735090301904,-1.4242357251686428,-2.712780314087529
2937433,0.0010437836442141995,0.014877108114969898,-0.005880280955398992,1.6330247060488638,-1.6753477823452831,-2.9600123636793843
2937455,-0.006003076972501182,0.007610729093993455,-0.0006553123941835255,2.2972409289152624,-1.6121196242816966,-3.1245610277170925
2937477,-0.008653163514694652,-0.005623230102148031,0.004827650950700944,2.789089637037827,-1.1164682854837493,-3.137216618226888
2937499,-0.005338380561199412,-0.01876335479317391,0.008278418147105225,2.84013263956809,-0.4274407347427855,-2.965998799774093
2937521,0.0003170239912168304,-0.025435110816509704,0.008899125608453542,2.343223583985023,0.03761341021902537,-2.5659188064927476
2937543,0.002895945757087124,-0.022811983460594654,0.0074435460359343454,1.4446007936399297,0.09719547663385406,-1.9429146048122379
2937565,0.0009040557141139565,-0.013443292350314127,0.005011448126327238,0.5096479376201822,-0.02346023866345172,-1.2586680070715102
2937587,-0.0014573094115952288,-0.0033421510469281695,0.0019391036698924904,-0.07321169701746663,0.043351947807277774,-0.7584094729816158
2937609,0.0010166131649127273,0.0024507638534077406,-0.0020363597113966475,-0.12999249447873976,0.38636614578800366,-0.55196860918882
2937631,0.007992749624375807,0.003087450475289127,-0.0063591412609633,0.20694697683665342,0.6783388372163416,-0.5393370223581111
2937653,0.012857485122215215,0.0013370685979137576,-0.008876148823003308,0.6195855781890414,0.4895292584967809,-0.5957324828097255
2937675,0.009558226860733026,0.00039476123234939047,-0.007437302826391155,0.8328829394141788,-0.24177297944124648,-0.7529635807377782
2937697,-0.0003917263949588674,0.0013842644666888385,-0.0025413586036296593,0.7849344814380087,-1.0675281816365285,-1.110237515707735
2937719,-0.009055619041445409,0.0033914704578206496,0.002316788468130822,0.6340843504187565,-1.3921003591343382,-1.604165750272654
2937741,-0.010192841407998712,0.005021439827822225,0.0036275564539629624,0.6142154412716544,-0.9939926822300696,-1.9865650382379911
2937763,-0.00505945191200093,0.005492525533871035,0.0011871185901445645,0.8532535687461411,-0.18922892193055096,-2.071936546581358
2937785,0.0001756574853039624,0.004548531422438832,-0.0018912692877209262,1.2927189355344733,0.5060337239330814,-1.9334668101795072
2937807,0.0014988260958537303,0.0018942875304129715,-0.002481739215237465,1.7509073906676282,0.833062416598708,-1.7915438469851108
2937829,0.0004384454866935134,-0.002847225986681249,-0.0004593144219553201,2.042904569431741,0.9065608470376096,-1.7456249744783605
2937851,0.0011189157703834442,-0.009267765591013291,0.0015897937208213082,2.0507645921942954,0.9534913496377008,-1.6838433946866276
2937873,0.005407898539654064,-0.015118117638551648,0.0012127507114469203,1.7358887727148935,1.026504191245174,-1.4553998478066177
2937895,0.011168202178208951,-0.01662710357247827,-0.0016671280409663106,1.1572007362196393,0.9778364037568185,-1.0773741102425471
2937917,0.014364363427933485,-0.011028713791443814,-0.005054925101540644,0.5091498944627784,0.6548109267825193,-0.7497640896553353
2937939,0.012520226778211883,0.000243768694525511,-0.0068513267744897185,0.10041614608733113,0.09364417977188694,-0.6926488535838337
2937961,0.006724183352156347,0.011010991658530811,-0.0063287479726070045,0.19817135252863796,-0.4567488072761427,-0.972318240246609
2937983,0.0007906841856097821,0.014239003393038055,-0.0041137897946570655,0.806915068725401,-0.6936417701637569,-1.4373684899728085
2938005,-0.0016835699821824736,0.0077181123085777095,-0.001376433277093531,1.5971013666081126,-0.4767664134232193,-1.7865857978929727
2938027,5.74720887094326e-05,-0.003882283273828399,0.0008158642479038311,2.1196287039403363,0.06720877472658689,-1.7410103980379916
2938049,0.0037255739596995423,-0.012979388788379446,0.001864024130579314,2.1430322441452803,0.6293080023219823,-1.2448381655323966
2938071,0.006197013228825738,-0.015280061753344431,0.001872466699145238,1.786130102555282,0.9234147359160163,-0.5515750767382737
2938093,0.00621589655706411,-0.012233963545828893,0.001464529400519486,1.3355729650689283,0.8680471721972058,-0.072038021138701
2938115,0.005236704178741371,-0.008038083193838162,0.0010873807687075028,0.978517205634996,0.6174058065922075,-0.05350251752751159
2938137,0.0054679841259942345,-0.005104495466112833,0.0005569219134418054,0.7305445473466881,0.4076082246497914,-0.37625245696070125
2938159,0.007060211749414551,-0.002735297341611615,-0.00048277917729569453,0.5719213579629071,0.3436822864905254,-0.6984697331996655
2938181,0.007913036729772427,0.0004373229081367876,-0.0017747302739872458,0.5663705170225428,0.3408061643462644,-0.8142111802928756
2938203,0.006731737909538831,0.003780515671095266,-0.002546939815820856,0.7966888484671608,0.2780824693839499,-0.8233465352075281
2938225,0.005365829379586903,0.004916255807771406,-0.002508487227426027,1.2097503854106542,0.15979321615976116,-0.927826286463897
2938247,0.006770560604277641,0.0023638552391387177,-0.0023395574404859137,1.5879401226498662,0.07410382500345457,-1.1315046765511345
2938269,0.010823150337070996,-0.002469678518066494,-0.002873681163192696,1.7101023344002333,0.032343489518337466,-1.229765774782181
2938291,0.01369195892958889,-0.006124671257975952,-0.00403541684829075,1.5432924151716327,-0.06174275259469879,-1.089179473924286
2938313,0.01201698750471072,-0.006103042849799717,-0.004877375306780316,1.271413647863869,-0.27322829067327514,-0.8538952607460147
2938335,0.006743139733035345,-0.0031557875290309434,-0.004512295072486712,1.1271035092925141,-0.5349521677946687,-0.8197223049572078
2938357,0.0020229703901876697,-0.0004227921146984782,-0.0028551159828931476,1.1847139887646876,-0.7101660097819292,-1.1115234248501777
2938379,0.0009005672344055047,-0.00027229146735331677,-0.0006723802544030249,1.3152137795801953,-0.718203489182973,-1.5202093923509419
2938401,0.0028046152298745295,-0.002236386972285788,0.0009421527455435449,1.3395699757810773,-0.5850812017472014,-1.6897632570441614
2938423,0.005004296369135916,-0.004076429824350541,0.0013478186683988942,1.2120894711308843,-0.3979434820433062,-1.4661567867092862
2938445,0.005757458167980856,-0.004455587340833297,0.0007928338601600682,1.0465801572588511,-0.22794459252273477,-1.0334499531933032
2938467,0.00565117139258892,-0.0041874938580625885,2.4704099408295763e-05,0.97431116495315,-0.0965591591575285,-0.7035067745975099
2938489,0.006094346907058465,-0.0048866241072640215,-0.0004917112998156516,0.9937523681167866,-0.004462091720565867,-0.6156872610355969
2938511,0.007191912432021901,-0.006667028526220912,-0.0008305955578364454,0.9702457712231297,0.03738288209736198,-0.6643225698762484
2938533,0.007669513332877463,-0.007456527256604165,-0.001198561428035464,0.7868983188743424,0.027073756572745244,-0.6729035075960379
2938555,0.006695463526268339,-0.004823330938885843,-0.0015646029631745965,0.4949899159410319,-0.0010886165007778185,-0.5843680500422221
2938577,0.00510384579437713,0.0013541525319398801,-0.0017700981669068428,0.3087253552917935,-0.0061010106224565035,-0.4898597861376492
2938599,0.004571185976555116,0.008011919503433464,-0.0018299053508338244,0.4376886458586736,0.008557652452397351,-0.5175260621566306
2938621,0.005966989410537667,0.01083472708951683,-0.001938911390269707,0.9043580787838982,0.004374110831871303,-0.7094965355328596
2938643,0.00879946140271755,0.007442728337479807,-0.0021335722108948942,1.5026669100400571,-0.03770971072579667,-0.9856407667855323
2938665,0.011856107925199484,-0.0007365962753321136,-0.0020728729148093623,1.9240727633181902,-0.11011119676605931,-1.2075375467214673
2938687,0.013772313618002905,-0.009267121674201878,-0.0013629134742928805,1.951034317834306,-0.22232219443335988,-1.2817257303034266
2938709,0.01332262972342259,-0.013508616446480494,-0.00018069698963271014,1.592343922188101,-0.3926521746642919,-1.215109382015869
2938731,0.010290860536116933,-0.011540069775057055,0.0005940074880966601,1.0849157778731628,-0.5703668915075436,-1.082082663682698
2938753,0.006359231650836996,-0.005371971701897497,0.00017299170127459782,0.7537126354863333,-0.6276405097276471,-0.951949880914154
2938775,0.004222306345924441,0.0004344506357595457,-0.0011280681206503106,0.7964815126554647,-0.49568076566297037,-0.8579843529521857
2938797,0.00513198935407638,0.0020572718319109653,-0.0020144054480248923,1.1343324788242244,-0.2864204915282073,-0.817728279015488
2938819,0.00757403390053494,-0.0007697815391054019,-0.0016679007742226228,1.4650686298411568,-0.20816308374133252,-0.8367248297501859
2938841,0.00876071584761455,-0.004928273173276336,-0.0007987929309052252,1.5079536489399938,-0.340812457813026,-0.8676617511388407
2938863,0.007417568029648547,-0.007001442872390554,-0.0007848411472337266,1.2373320929218494,-0.5360962896153941,-0.801633192597098
2938885,0.004967608293634357,-0.006171920892490629,-0.0019341008710175725,0.8846487983191961,-0.5745765755000943,-0.560862591306299
2938907,0.0038959630208475825,-0.004106999236770863,-0.003105537495712807,0.7085221830815845,-0.4095669557895615,-0.21712280676862009
2938929,0.005003052217563371,-0.0025460316643790668,-0.003035416664189157,0.7717332038294238,-0.21983472414043215,0.020608212965247834
2938951,0.006595624218056542,-0.0017218804219713136,-0.001640806266867844,0.9437854827239268,-0.20366255029581923,-0.020763150272681084
2938973,0.006544461518005967,-0.0011091520291431573,8.152105033981082e-05,1.0809665695786597,-0.34527964782323645,-0.3095738649976725
2938995,0.004682588999321813,-0.0007703743741423508,0.001186168713425132,1.1505054916848887,-0.4242589806327156,-0.6310052971348993
2939017,0.002794451158647227,-0.0011957691146535791,0.0015882511555077412,1.1869693255660634,-0.2583693051818397,-0.790711705228304
2939039,0.0026342407415387886,-0.002165525143032995,0.0017481885165671132,1.2029895936619464,0.09542992837625713,-0.7889006359237453
2939061,0.004492195083508489,-0.002619577905680651,0.0017101029498896591,1.1940802356806233,0.395531912819122,-0.7812622478463779
2939083,0.0075530028120005775,-0.0017676263754291116,0.0006865587587050221,1.1959296943620263,0.44274197802280135,-0.8925245331271022
2939105,0.011010659044635381,0.00021927748565351071,-0.002173536861794354,1.2703084378518186,0.2229970769700566,-1.1154613912468319
2939127,0.014533910424193944,0.0027163918056444807,-0.006592912430202089,1.422446694625015,-0.14371780033820317,-1.3819413373017195
