timestamp,ax,ay,az,gx,gy,gz
2916049,0.003535366938614508,-0.0010908964439276735,-0.0025803580594160754,-0.36701862936137125,0.1797189587151245,-0.3690417235176587
2916071,0.0024420520329266663,0.000969000055274764,-0.0017571299248856232,-0.22681844318815977,0.200437374248968,-0.046001688151923244
2916093,0.0012522046995434386,0.002550492277269915,-0.0008629631903721304,-0.08262687864357977,0.15347876077226832,0.1352308952836717
2916115,6.27270353821185e-05,0.00313725396656976,0.00017164047166814907,0.05773694635666272,0.05403020006406611,0.15348083522181266
2916137,-0.0007823432582244547,0.0024595101303706867,0.0011368769055363874,0.1741564042175877,-0.028171958234635995,0.0993645718123123
2916159,-0.001023101882379868,0.000833540678035214,0.0015464925317997989,0.2391472808165738,-0.06736193065631119,0.057818078892133425
2916181,-0.0009753009329423279,-0.0009079621881973152,0.0012198405651601117,0.2273230902062034,-0.10373481023516469,0.0361926399552116
2916203,-0.0013468281923033369,-0.0019801545781498557,0.0006010474343694418,0.13740925566912124,-0.14730731785000742,0.018635167530342937
2916225,-0.0022646428516503946,-0.002266003447975709,0.0001727857510238976,0.012397076629140455,-0.11365140494002403,0.03787078172228925
2916247,-0.0027692400902914714,-0.0023495639952997994,-0.00020643279974383525,-0.08070313982717857,0.0776027224155153,0.13943971337667974
2916269,-0.0017881793116712734,-0.0027030738331790694,-0.0009497714501402763,-0.11054006370879653,0.3505218171613231,0.29495976376524363
2916291,0.0003692630184965682,-0.0027680990864227626,-0.0018599884882674524,-0.11201199412252558,0.4916406164329947,0.403204826067094
2916313,0.001977112030175732,-0.0013616198981007037,-0.0021297847752239298,-0.13503457561082535,0.3615768521986777,0.3797646713557077
2916335,0.0016449773572604046,0.0013973296645869607,-0.0013322687678383733,-0.16778620038472128,0.06162797234970753,0.2141496664069511
2916357,-0.00011830710086763973,0.003030858283928478,-3.887859805030748e-05,-0.1493344332833884,-0.14785426460534629,-0.0547030562038283
2916379,-0.0013294880082850727,0.0008955043588181099,0.0007001008639003179,-0.07799034759121778,-0.09605493988167446,-0.3725659766198811
2916401,-0.0004904770613802812,-0.004201868346449476,0.0003092627244178443,-0.06543648720154918,0.14505753765767357,-0.6615547019946657
2916423,0.0018679556307775308,-0.007734947796788362,-0.0008896592959420881,-0.22649480623031035,0.35181674610063457,-0.8164757704537532
2916445,0.003595912304844263,-0.00576811939216942,-0.002029102888659823,-0.5169322062011226,0.3783784231206709,-0.7559679027759006
2916467,0.0030446845801163267,0.0007781775513037506,-0.002418167151034338,-0.7286729810667946,0.2876864834036974,-0.48684889567626105
2916489,0.0007990664327587574,0.00674955075053244,-0.0019792564718006038,-0.6730249303114454,0.25787194959459064,-0.10979909063855081
2916511,-0.0008939728057443157,0.0075620129678194295,-0.001060567900241435,-0.3612909849427196,0.3748427041521129,0.2347135248805678
2916533,-0.00042392261196266546,0.003192146232120707,-1.0090143528685485e-05,0.0005402861457873276,0.5363624719008502,0.4320750937873824
2916555,0.0015999173928174367,-0.0022992027412145595,0.0009192039391910211,0.1877675548433309,0.5658225304804101,0.4484480803895559
2916577,0.0030207523623124724,-0.004700178471785842,0.0013992771468023506,0.13255796218820226,0.4108212241704447,0.36208629796149605
2916599,0.002276289435174675,-0.003003316402416886,0.0010705500779220579,-0.04983078869947938,0.2137460316119583,0.3207721272153267
2916621,-0.00010709387890215113,0.0006394737407719074,-0.00011986036724626092,-0.1847518932085263,0.1705383971076032,0.4097582152057774
2916643,-0.0021063063231278076,0.0034548751620517124,-0.0016776396552834977,-0.1829404672619925,0.31991629773266134,0.546270871156729
2916665,-0.002221370606216724,0.0040907512186097415,-0.0027516456893646934,-0.08209783917925992,0.4981655392722564,0.5475796543411589
2916687,-0.0007591549834704146,0.002674505020659709,-0.0027171236909052415,0.02052975041831468,0.5218908292629427,0.3361697837664457
2916709,0.0008493370738282264,-2.5580050996637776e-05,-0.0017247004089663296,0.05309372187120627,0.39056762390977395,0.058285733299266264
2916731,0.0016381426301809098,-0.0028876667614396835,-0.0006431263172237388,-0.002719009668154079,0.26873109726121347,-0.037425683156861886
2916753,0.0018018858586982063,-0.004366946313503759,-0.00028951764222849905,-0.1281649741237946,0.2783619843562338,0.15295858676075458
2916775,0.002037569997101834,-0.0031616136756476127,-0.0006625630077525956,-0.27634076866038326,0.36123969127848604,0.47907194613959586
2916797,0.0025278896036221975,0.00044095623437884847,-0.0010628892703669684,-0.3697062078260097,0.3682214238832102,0.6814985286586216
2916819,0.002747581522803833,0.004110702185234262,-0.0010009930861389306,-0.3304067827936644,0.2496225477053635,0.6341764206731145
2916841,0.0022417180030937746,0.005038876342480905,-0.000739256420378992,-0.1479362865865457,0.11031237915412331,0.4288670218429588
2916863,0.001348054919815702,0.0024025180003375804,-0.0007820335311826942,0.08227579905212559,0.06973726924540405,0.23439242622922887
2916885,0.0009089817788040819,-0.0017194495292190842,-0.001141427101464329,0.20834349852896988,0.11073259418999917,0.1218899076900271
2916907,0.0012716150214893578,-0.004060387928564473,-0.001444247644632949,0.13610682175943342,0.10979435747810176,0.06004225451088459
2916929,0.0017589814056413115,-0.002969834175868911,-0.0015171439463956323,-0.08317981334497264,0.0032284599791751038,0.03517911707627557
2916951,0.0013730754143859503,0.0002860674220367836,-0.0014185243156310823,-0.276907056883278,-0.1243255260638279,0.09152378508012729
2916973,0.00012335611111299397,0.0028358288494428254,-0.0010588153929467223,-0.2869236160714543,-0.1314972185147679,0.24049013293927488
2916995,-0.0006595699318323163,0.0028251764835630507,-0.0003634931595993641,-0.1060346367353364,0.02156077063052712,0.39994391172997495
2917017,0.00019099071618448247,0.0009127074598558178,0.000187159244024723,0.11858215743664323,0.2197314021744579,0.4670597290354282
2917039,0.0019314220717945878,-0.0007689597317379857,-0.00014367828854322892,0.22471529335242407,0.29528757343463674,0.41859592033978943
2917061,0.0022517617548392936,-0.0010698139233979503,-0.0012281685091361828,0.17242223860264133,0.18969876136995323,0.3030276766932728
2917083,-0.0001821463911599791,-0.0008493429404214395,-0.0018741745919377483,0.038686531286310354,0.02281502237168749,0.15432709361473196
2917105,-0.0037347396696616277,-0.0013103684341335075,-0.001281866905295507,-0.09627250713102195,-0.010826134462694672,-0.04397740338009448
2917127,-0.005015490862202082,-0.0019846852239481087,-0.00022572407839681292,-0.2131455546485744,0.16472022646561021,-0.29811100747485275
2917149,-0.0024627383859426666,-0.0013520207268226056,-6.925486514678349e-05,-0.30481452494922573,0.42187080821254475,-0.5315022010326246
2917171,0.0016898337769855908,0.0006517586074414728,-0.0008526116929979274,-0.3226416300046132,0.5560223826986732,-0.6071241976188689
2917193,0.003613810609748166,0.0018801175954779742,-0.0011799362279370723,-0.2244515434851702,0.48882361820024006,-0.4425023115438529
2917215,0.001933460877186779,0.00041777135201506244,-0.00012821106524972686,-0.06473901761598591,0.32498097275178583,-0.09627950994422554
2917237,-0.0010239213867985941,-0.002696290158938936,0.0013932482717031282,0.017936113068799782,0.2177948036629058,0.2723724073377621
2917259,-0.0021177234350937294,-0.004034026185749128,0.0016029647734922704,-0.06540587551418778,0.20916524940751016,0.519685017960288
2917281,-0.0008935972283700625,-0.0013271735458848554,-0.00011839378423958143,-0.24929543324183043,0.21235168196617454,0.5826326689155701
2917303,0.00032999618129245256,0.00385889295632572,-0.0025636690368993466,-0.3646329145794877,0.1369707802492771,0.4699625033443853
2917325,-0.00047053092410709985,0.007326642077283813,-0.0040107845328332175,-0.29431560720949185,0.00630591066978609,0.2502870010350981
2917347,-0.002727473772423468,0.006211221957965633,-0.003808678818316091,-0.07705318472216006,-0.06774884886473753,0.04504465035346908
2917369,-0.004309673508033074,0.0016903405059193577,-0.0025399745660336266,0.13262419794174832,-0.015559289158060837,-0.033951426561578506
2917391,-0.004071701150097992,-0.0023149019295834843,-0.0010174456941765592,0.20153324993584698,0.12104729828265508,0.02694198062726473
2917413,-0.002647630763509165,-0.003051843737199997,0.0004099623884293475,0.1217617666595967,0.2610412262243582,0.15100608393915824
2917435,-0.001144280524502956,-0.001337042049357255,0.001586708109196376,-0.01168391721431029,0.3872682936516864,0.28924412142934536
2917457,1.3234588658162717e-05,-3.533856268347945e-05,0.00208019440719919,-0.11161773115043726,0.5402179993379573,0.4858764651797104
2917479,0.0008943210298603128,-0.0005392247977158206,0.001399733832600298,-0.16984401501757698,0.7171380123602011,0.7763256913172543
2917501,0.0014629862728502926,-0.0012564574341752711,-0.00036554948583145005,-0.22146929749187755,0.816758159328503,1.051050523908519
2917523,0.001534855157266637,0.00030561853525207943,-0.002444233415080389,-0.26691837879885677,0.7228397616813211,1.109033644530633
2917545,0.0011412226354767154,0.0043440033972473235,-0.003961638412815227,-0.25102612045522443,0.45052283133555243,0.8819021149403037
2917567,0.0007205404597259435,0.008089156215349998,-0.004392356815030499,-0.11643929647529407,0.17211942061871738,0.548638137270239
2917589,0.0007553812784769601,0.008348247491270116,-0.0034780873640973316,0.12929828111862848,0.058650985914588935,0.37019464455718765
2917611,0.001064510205011111,0.004442228230481201,-0.001155960046340475,0.3942197877401442,0.115282469227947,0.43022847629082495
2917633,0.0007804838033600085,-0.0013817456669400474,0.0020402491465237402,0.5463893702261086,0.2181652026334655,0.5869795268049421
2917655,-0.00039435522737416636,-0.006012235733898354,0.00462594128844634,0.49527562945484793,0.294720631620386,0.6672424295241332
2917677,-0.0011106921544184352,-0.007623067824530441,0.004766356111744549,0.254972576289993,0.38996343784261794,0.6459236571842156
2917699,0.00041728973881643733,-0.006129223356669552,0.0017813749740823843,-0.06082743622465106,0.5279273202238407,0.6169087313771544
2917721,0.003700304126703522,-0.0023914529534512213,-0.002832308932318858,-0.3083723344065289,0.5900440243471111,0.6432730564813844
2917743,0.005495756861865652,0.0023274754203267715,-0.00624334704716965,-0.38890071443858654,0.42942691587348697,0.6863247080542025
2917765,0.0031699440312738703,0.006188996308714379,-0.006540278985425788,-0.28395444139401843,0.08867767970716706,0.6566876101713837
2917787,-0.0017973921957616357,0.006946523847807138,-0.004199066544327467,-0.06051759041641779,-0.19768228404632257,0.48463710607878085
2917809,-0.004779332715686121,0.0033870956916963045,-0.0012868228384287613,0.14118420140014798,-0.25001554774547485,0.1553964453350111
2917831,-0.0027575354824288215,-0.0029483952596347646,0.0005545929194487962,0.16409523890666292,-0.12801266040710813,-0.26101773694945735
2917853,0.0024357260688415757,-0.008019517068945806,0.001151575912474513,-0.05800597795000482,-0.030265877311824448,-0.5999291047706959
2917875,0.005991597205212884,-0.008164128720778582,0.001118157538481172,-0.42019071781386164,-0.0529227306893755,-0.6795250386471614
2917897,0.005006089462508264,-0.0032363117481388594,0.0006797240609232527,-0.6966929475631771,-0.10050304659481638,-0.44445959777941363
2917919,0.0010818990008047238,0.0031005483026542904,-0.0004858698242222088,-0.7138033263566896,-0.031623598284344336,-0.0361763862508815
2917941,-0.0018297707271588853,0.00635284564438636,-0.002349358638240119,-0.4937036733078969,0.1571552162864518,0.30298840843617664
2917963,-0.0014881064042928007,0.004706544288907845,-0.003975352994936335,-0.22480337853720941,0.3280083487277292,0.4143086524324415
2917985,0.001011856276694798,3.9611872116703504e-05,-0.00423925692128337,-0.09476844482277642,0.3572245723993367,0.3310966857267056
2918007,0.0029232445813315074,-0.004049811863720969,-0.002892430096927768,-0.1623856102737458,0.24430073138669536,0.22562739847263077
2918029,0.002435256382848086,-0.005184376258580881,-0.0005790078371691476,-0.3715846570741839,0.06858742248887316,0.2503525951725813
2918051,-6.495593169330763e-05,-0.0037835958835868585,0.002012490439593179,-0.6410883712648635,-0.11110445344336338,0.40939766194209304
