timestamp,ax,ay,az,gx,gy,gz
2852865,0.0016693905822409327,0.0018653695264204914,0.0024087496242218885,0.10395811880090138,0.27288145457750934,0.2240334471210467
2852887,0.0007350165276405018,0.002617333974407097,0.0005643030756063432,0.1362130886973595,0.16204091337663526,0.20002502372218772
2852909,-0.0009365931784837398,0.0009523283236784795,-2.3761059094320385e-05,0.23661695532086505,0.02018638629399209,0.1313393250150521
2852931,-0.0031034904691401976,-0.0033176948119706734,0.0009196851776044399,0.3385172914966874,-0.09483762144179873,0.04077056294096147
2852953,-0.00433284282396223,-0.007493292665590776,0.002343144289598077,0.29219184703381823,-0.09491012295037281,-0.01927696462014042
2852975,-0.003213005964826531,-0.007937098655762625,0.0026110698965264552,0.04688808857184438,0.0038805941582431185,-0.050060061688409346
2852997,-7.800714899619208e-05,-0.003485386373122107,0.000953894388660155,-0.2582028910618795,0.06859824080297126,-0.09931771505760804
2853019,0.0028442730980860215,0.0029455203055411424,-0.00162754593402165,-0.4049151206307184,-0.003202186636570705,-0.16582881823549295
2853041,0.003304628162234259,0.006662835980121379,-0.003037265363276947,-0.29462460283191244,-0.16570772152294042,-0.1690473560063731
2853063,0.0010139112776963546,0.005500427122527845,-0.002007682291128153,-0.03706144353922952,-0.2963140146725434,-0.06457718015559044
2853085,-0.00232998931959052,0.0016949554204538078,0.0005684724767547809,0.15192870667442204,-0.3679569364068652,0.030487849712853378
2853107,-0.004942601136248803,-0.000751553174940313,0.0025402689476855004,0.1428989897025889,-0.4886325349339267,-0.09802964851674832
2853129,-0.006495587905437391,-0.00031810734511188046,0.002771187374983112,-0.0062420574669550515,-0.7264943071119867,-0.5212968805156533
2853151,-0.007438204927832457,0.000840931355151102,0.00208203583918015,-0.13026672636234346,-0.9384891474702499,-1.021447036805739
2853173,-0.0073734196492440725,-0.00020558934867596047,0.0018708789891406553,-0.12745318429086377,-0.8712824381989526,-1.253880226859018
2853195,-0.005221707979048538,-0.003665718786418019,0.002414310321895866,-0.045427902555324834,-0.45936098832561295,-1.069732210305833
2853217,-0.0011981349044669688,-0.006719799122039471,0.0029359101795804437,-0.008458893840598041,0.05141073020573625,-0.6366098885888675
2853239,0.002351139189718368,-0.006484200257299356,0.0029186873349709977,-0.08194596542600509,0.3307220162455061,-0.2378734622507298
2853261,0.00296004804938472,-0.0029473468616813036,0.0026923613449330265,-0.21468976663859626,0.279160383426701,-0.011337749470505629
2853283,0.0006586937570076074,0.0011037983476947985,0.0027085884305325,-0.3013123122371946,0.06978909868702665,0.09005599087967192
2853305,-0.002223078606341592,0.0028793349640999747,0.0028070114470315666,-0.29003641135026403,-0.09908653574776759,0.1488875373025741
2853327,-0.003912582303117129,0.0020803059263522043,0.002592604993974506,-0.2228609042369001,-0.21076026390158048,0.17915723395896055
2853349,-0.004940006972888158,0.0006261048271617154,0.0022643958675250477,-0.17084175063459645,-0.35465584410054,0.16272293988535946
2853371,-0.006526280617673811,0.0002903802792963828,0.002469653303048664,-0.15110489254646378,-0.5198369085222804,0.10708080783052687
2853393,-0.008067286143284875,0.0009961912118578416,0.0032249890040395627,-0.12829053102672774,-0.5702964498557401,0.02442894715791917
2853415,-0.007454369858365812,0.0012656850853617633,0.0035712322070249078,-0.08243971766824924,-0.43011705172817,-0.100064098914501
2853437,-0.004025139612399735,-0.00018741716202910327,0.0027946450670952904,-0.043622713842627024,-0.20156045003219808,-0.2582594470038076
2853459,-0.00014910891004866667,-0.0033381353500821073,0.0016964680470035356,-0.058309240587862105,-0.048326082550237126,-0.3498495839466568
2853481,0.0009903367897238342,-0.006741182330545538,0.0019715280917982085,-0.14331568881138237,-0.013183795837044923,-0.2349104513729497
2853503,-0.0011268194661237475,-0.008294165150411264,0.004146544594902666,-0.2725485837260035,-0.012672843519126044,0.09943155812390611
2853525,-0.003931943511310014,-0.006665928347318254,0.006597895078836649,-0.3860920531885925,0.012853575301334755,0.4528517631640989
2853547,-0.00478021143241355,-0.0026393931245317567,0.00702466048072833,-0.4114688764117276,0.018786281018315427,0.5533353994973811
2853569,-0.0034867939356550484,0.0010134427500484724,0.004744602721356158,-0.30966681055224304,-0.05678286979167061,0.31344331400376957
2853591,-0.0016354677283503198,0.0016194254635031769,0.0012423037338862664,-0.1255352680715829,-0.18775657795799386,-0.07269142334713558
2853613,-0.000502035089453872,-0.001052144785258993,-0.001308689785729723,0.021670931942084123,-0.295249090817366,-0.31066108645321977
2853635,-0.0005413055138828132,-0.0046220915160409635,-0.0016376605900261126,0.0265507673831865,-0.3554255107988199,-0.27832982434226144
2853657,-0.001964592641056046,-0.006327857866178975,0.0001396999556925504,-0.11465862244937537,-0.4029814474781497,-0.10624526953005932
2853679,-0.004360176647314649,-0.005327327835693171,0.002763694394319433,-0.3064052930895231,-0.434843202853236,-0.0017768315360973674
2853701,-0.00609983198093748,-0.0029524081000113123,0.004522397514434856,-0.43772085685635337,-0.3906210766584878,-0.02474284624122398
2853723,-0.005591836190168571,-0.0010154319177903925,0.004444131167980032,-0.46337112174269135,-0.25713564660220856,-0.05646750500009794
2853745,-0.0032445601945112795,3.133689179966436e-05,0.0029903000149655956,-0.4169071661867352,-0.12876241837671737,0.017743583572248655
2853767,-0.001146554051061695,0.0012659817142006153,0.0012317545787523254,-0.3522144938197088,-0.11581594010810688,0.1340506631302866
2853789,-0.0007400704574740058,0.0035117954912486466,-0.0003450736940541938,-0.27023240622631217,-0.2263956165562651,0.09748633053995215
2853811,-0.0016647892742925711,0.005478707986704155,-0.0016270748853583546,-0.11819264215286746,-0.37438780704880825,-0.19671803678993394
2853833,-0.0028340327182795927,0.004304135907875112,-0.001954273877431765,0.112787095680598,-0.4745348810090309,-0.6215854517408502
2853855,-0.003707987029362364,-0.0014261017515244002,-0.00048032899930686244,0.29858831162228416,-0.4940276959299608,-0.9117666311636503
2853877,-0.004276795927181929,-0.009215368826564704,0.002430407420381739,0.2431843331614855,-0.4314265467831699,-0.8863008272452026
2853899,-0.00450077767420624,-0.013831657242968023,0.004955532216505833,-0.12706728897070732,-0.2888887607492576,-0.5806621317428612
2853921,-0.004269692760257628,-0.011649611226863857,0.005380338687757641,-0.6391029556059347,-0.0800357466315629,-0.18311571073186259
2853943,-0.0036368548862727103,-0.0041288792242405534,0.0035988221730172067,-0.9864682603802029,0.14922327423182163,0.1385636041859425
2853965,-0.0026361722172651386,0.0032621284275629603,0.0008717462682179459,-0.9948073801425669,0.32026531047519463,0.3435559840901746
2853987,-0.0010709408439585784,0.005970416107235031,-0.0014178707506621144,-0.7703137729630388,0.3415169129030868,0.4689319113208082
2854009,0.0008339766865739051,0.004239606724160417,-0.002337184261140623,-0.5736996394498302,0.1478922061241948,0.519650783538014
2854031,0.0016416685556140712,0.001884976295209696,-0.0013304596050399875,-0.5562695269132094,-0.2269358422361052,0.4540827705259744
2854053,-0.0003273040543750027,0.0014986451235842442,0.0013456347160506336,-0.6420409960930086,-0.598904354917399,0.2712867828600317
2854075,-0.004688892330282194,0.0017439342251454476,0.004077602886320016,-0.6671727512256453,-0.7180573404935536,0.059193260977427976
2854097,-0.008527125263865409,-0.0002268759591398163,0.004859585780918993,-0.5958595247545959,-0.4765006341849451,-0.06958345613794067
2854119,-0.009006934096202037,-0.004458782028398094,0.0033553863082901605,-0.5666169526673606,-0.029217918856681444,-0.0737869769265894
2854141,-0.006103227616186428,-0.007304421237327055,0.0013962388830502097,-0.7324119450595135,0.327444149119147,-0.01299898575946771
2854163,-0.0023591437732514778,-0.005065807330962129,0.0009406869740447108,-1.069931682222056,0.40004766814452897,0.0025562007707976104
2854185,-0.00031731607988837965,0.0018521892447670308,0.0019763725470609214,-1.3500513978799629,0.2231812755384246,-0.10036077983783294
2854207,-0.0005070737961467103,0.008789775598197925,0.0028900163682067264,-1.3133698963901024,-0.01766230137634365,-0.2921345120634735
2854229,-0.0016165498703948347,0.010877462291356345,0.0025395486046370297,-0.9001385020831866,-0.1517976757176864,-0.45129805876668777
2854251,-0.0021210463020316698,0.0070855934185087505,0.001377838909268946,-0.3125236862340386,-0.13446962846269925,-0.45730931039771805
2854273,-0.0016482319371113542,0.00045910453739265165,0.0006586339550660482,0.14631244918277586,-0.04891081442655188,-0.2944962703779391
2854295,-0.0010523288348632527,-0.004895491155533458,0.00113929205276684,0.28192586368572664,-0.019461661035178306,-0.06844628623264486
2854317,-0.0013943518775176283,-0.006627433537294386,0.0026574145023383834,0.0895779820561836,-0.09414459985771649,0.09194093180017147
2854339,-0.002813357301850087,-0.004744368325176902,0.004405325167544389,-0.29024946499840243,-0.19399939648523107,0.14685784258532986
2854361,-0.004395948636170529,-0.00072299405761695,0.0053702092391697985,-0.6550303622103743,-0.20309689374953654,0.1466244132917867
2854383,-0.005321123916483022,0.003524082980045905,0.005032188212225089,-0.8323288575524697,-0.1174863573456348,0.13784492281405722
2854405,-0.0058874758556895215,0.006490211234779255,0.003946984046833866,-0.7656051742194088,-0.052605808385173425,0.11499011375159174
2854427,-0.006677307513848176,0.007732631222301062,0.0031387642499432966,-0.528603629446897,-0.07408660064217344,0.06929474926789629
2854449,-0.006830937990876169,0.00774265216652988,0.0026877954400059034,-0.24196901116310238,-0.10275771243596349,0.021553574510369135
2854471,-0.004616050863403078,0.006786637791948885,0.0016986414082499992,0.012114453835864413,-0.07062579553425898,-0.03717839609466374
2854493,-0.0003590870292575958,0.004181062431737836,7.80577145793614e-05,0.17760795308103128,-0.08846082385529894,-0.18243573830255475
2854515,0.002741088351835329,-0.0004248601075116962,-0.0006772335633107676,0.17087448114696605,-0.3061975119381754,-0.4536394300720269
2854537,0.002075993716588846,-0.0050534016113797445,0.0006503933702595459,-0.08274533353531627,-0.6356454315698058,-0.7348456617535474
2854559,-0.001158995522280478,-0.005908028119111983,0.003087064361828652,-0.5286747326810453,-0.788336026743438,-0.8299160958814661
2854581,-0.003629411665342837,-0.0009378934410181705,0.00442288122805901,-0.93633711369612,-0.6300878526709927,-0.6796520737911388
2854603,-0.003883810354869784,0.007262657332882515,0.0036627610993289535,-1.032195101022346,-0.3573993339276605,-0.44117111934137715
2854625,-0.0031602593383670617,0.01293841701218708,0.001716336853429014,-0.7240174009602289,-0.24830691401658514,-0.31812368243606787
2854647,-0.0027839483114627957,0.011993822658477305,6.541563588249589e-05,-0.20223770835714003,-0.3363013341209591,-0.34720361790858845
2854669,-0.0025637765491450574,0.005336164872703729,-0.00040527309231769065,0.2003726054259658,-0.4222970063342608,-0.38149843157981567
2854691,-0.001870392055033486,-0.0022962892158403083,0.00040857734733409706,0.26619527438633633,-0.35918624217531375,-0.2670712671622236
2854713,-0.0009246057230472621,-0.006270364976173421,0.0018379959924291567,0.026934390443757804,-0.22882202655078557,-0.008874982817305603
2854735,-0.00061888707192337,-0.004966643590310664,0.002628970455726761,-0.31536781185173896,-0.22871609528049575,0.2374896599844714
2854757,-0.0017445386991172328,9.097818508187712e-05,0.001908268407522485,-0.5578674054788492,-0.4396701646558026,0.31607916439193473
2854779,-0.004392151822997411,0.005929439143920868,0.00021288475727331246,-0.6048302736138287,-0.7339166631652178,0.19888471794098903
2854801,-0.007490648990066512,0.009941767087732775,-0.0008231370240858101,-0.47605809082593775,-0.8955654648453887,-0.020426904802201454
2854823,-0.009047045818409689,0.010883304004218906,6.887030587787499e-05,-0.2566493291449444,-0.8050856603842481,-0.22876458960823026
2854845,-0.007582398827357835,0.00896047539228792,0.0028787568070821543,-0.02904048670139921,-0.5001491893010422,-0.37561676856161136
2854867,-0.003650705886661027,0.0053636098330654336,0.006723219575661271,0.17806441291784864,-0.09303523175697279,-0.47755957793974013
