timestamp,ax,ay,az,gx,gy,gz
2944143,-0.009092948524917618,0.005420092465969281,0.00041888382824254523,-0.3161598876002654,-1.4479395816174696,-0.6918365233362689
2944165,-0.0057266337659203055,0.0013557025188178184,-0.00038343315254892377,0.11098103980264706,-0.15352952352322646,-0.19879324725789219
2944187,-0.0006544792418551156,-0.0016983719424680864,-0.0019856119350893315,0.3335475631381176,0.6299971582115367,0.07219119975428907
2944209,0.004486753779194811,-0.0027003823589739975,-0.003431508663704303,0.27391017829491104,0.687992819514292,0.024560398544113005
2944231,0.006424620457654855,-0.0015262471147416523,-0.002965192655927606,0.04314451888724095,0.2555867540966216,-0.22255011544160247
2944253,0.004559306785023246,0.00031067720481700676,-0.00041782329473705974,-0.14071215436272536,-0.15387301882118262,-0.3856758440144747
2944275,0.0017754525952549565,0.0008107500610766827,0.0022835311277579905,-0.14482878243855488,-0.1842763149318015,-0.23519711741537075
2944297,0.000941053840714214,-0.0003478791236176027,0.0030735671040666825,-0.039446761390536676,0.07999707335820501,0.20422646653105747
2944319,0.002041701671133791,-0.0012853586030675279,0.0015820489653939796,-0.0027476852337573205,0.2883015616735985,0.6768282406153164
2944341,0.003121358697989548,0.00010184326992331697,-0.0010408924920437546,-0.11313497247986778,0.22002009338948578,0.9069066147276195
2944363,0.0027774119834036593,0.0037911285785665124,-0.0033530598282189078,-0.2574628731495085,-0.06018450399223449,0.7844167383741055
2944385,0.0009956139672520662,0.00735094471344749,-0.00427251393162961,-0.24380055817598748,-0.36715648328658096,0.40315573345783434
2944407,-0.0015269163595528793,0.007823600024183548,-0.0031932401123534906,0.007559141128028595,-0.571100787207601,-0.011185045566581713
2944429,-0.003775236060568796,0.003971852024766194,-0.0003487858440075069,0.3757372250765341,-0.6021578765220805,-0.22353801580588223
2944451,-0.004451667728248476,-0.0027217111327052976,0.002914990422990201,0.622390608065656,-0.41973691484229253,-0.12252548836049898
2944473,-0.0027918196213527215,-0.008726139472456745,0.004831682227357115,0.5734704192204205,-0.07098202186684033,0.21332305598649837
2944495,0.00023838150433253019,-0.01044518433413248,0.004490475562053541,0.25893601762808494,0.275682614938973,0.58113140153968
2944517,0.0023163033176877247,-0.006662024733135738,0.0023622158234964732,-0.09788899229007797,0.45180834062872793,0.8020073192582187
2944539,0.0020694540010328436,0.0001340532251790503,-0.0003276934915154158,-0.24251631815182637,0.4510469127935827,0.8273265766582886
2944561,0.0007330157444824578,0.005160559018941342,-0.00248365570370353,-0.08480656111574357,0.41415817937388966,0.7330787609587537
2944583,0.0007896754708655427,0.005051516801240384,-0.0034881668644355514,0.23389563104375527,0.4425598612677165,0.6364906132533455
2944605,0.0029049566615246196,0.0006360454915665018,-0.003105477014602967,0.4674278679686731,0.48119286299065533,0.6142578464662389
2944627,0.004839314373898376,-0.004125545181741902,-0.0013946892715139734,0.47297785410122617,0.41736721996717036,0.6699006584305112
2944649,0.0038772740588714064,-0.005939279881308923,0.0011519130986339008,0.30720617063864225,0.25427389312113186,0.7442740547255886
2944671,0.00017660244228410874,-0.00466232035429895,0.0034432050994029667,0.13295281794974,0.12979701233692792,0.7526104159457061
2944693,-0.0029096221626658796,-0.002305751380138176,0.0041063190568057465,0.05008372929432685,0.15835319987899582,0.6501099591593685
2944715,-0.002355762020387908,-0.00039280521598237747,0.0024948702293553057,0.024919615841085166,0.28903659972264223,0.49438214155582944
2944737,0.0008725479071707577,0.001232319598854236,-0.00042164814821084036,-0.025388169598495595,0.3459732385195701,0.4128816161648805
2944759,0.002499046307449812,0.0032362847595531663,-0.002549909368839827,-0.10175797882622836,0.21038518388010582,0.4519883734210465
2944781,-0.00023575124139306922,0.0050485053530876225,-0.0025093030604843034,-0.10325583853222949,-0.04670489873731006,0.46992753833536455
2944803,-0.0050205074981555286,0.004869624778649242,-0.0009905228657861585,0.04688237028150333,-0.22078414328504536,0.25932487303682267
2944825,-0.006641692781902372,0.0017243962571708348,-1.2739163492388601e-05,0.2743092890257842,-0.16407872740879945,-0.18484558156693814
2944847,-0.0027005061019409714,-0.0027348264632561154,-0.0007391656250127864,0.3911761900312388,0.07998296023723019,-0.5775204647301944
2944869,0.0035731606839954863,-0.0050617407409891315,-0.0022363548352492,0.27898180824446556,0.326319036448534,-0.5984958009379954
2944891,0.006603354432480448,-0.003122510553383271,-0.0025814118277730316,0.02474606243409261,0.4240351504072436,-0.23616145321187293
2944913,0.004185111601860906,0.0015401124057172115,-0.0010272805072860792,-0.1446335506075534,0.3766307022102115,0.17651572811341937
2944935,-0.0005865121474940707,0.004756424797830724,0.0012403704340017627,-0.0806635651654819,0.2910914028829556,0.2962995028904874
2944957,-0.0029275392102208037,0.0035485518838161904,0.0024228727404376343,0.13388352494623443,0.23452059658362326,0.10992326709735631
2944979,-0.001184937772092401,-0.0009981417238891053,0.0018093969652651,0.26346771734955654,0.17123895251911497,-0.09689897695968006
2945001,0.002148963711772747,-0.004769483069094216,0.00011792929289800061,0.15142796071546255,0.0368894327484659,-0.08412763248973544
2945023,0.003507890108732293,-0.004465559492756987,-0.0014470471983214783,-0.1362196800994618,-0.1544969651809202,0.10281876598758359
2945045,0.0017038571111677825,-0.00043656043278637814,-0.002144357792733204,-0.3846111629643734,-0.29039190086780475,0.2510316405638819
2945067,-0.0013732499540713354,0.0038486725338331414,-0.0018516096597128602,-0.42118584374170076,-0.2470685605106392,0.25545494339859354
2945089,-0.002844360426090033,0.004766971213211635,-0.0007347847854004931,-0.2441841190857476,-0.009278427160015737,0.2111676302753872
2945111,-0.0014914490385271677,0.001435343980908652,0.0008613128472767398,-0.006632770223150914,0.29048065318013294,0.26796063122503555
2945133,0.0013955088248382573,-0.003456940359481783,0.002191294467481933,0.10774114980375593,0.47034883098370056,0.4617683515385283
2945155,0.0035013952277662547,-0.005631339341260901,0.0022190861608619803,0.024950389796190478,0.4534581435986226,0.6921628043021703
2945177,0.003584518221032416,-0.002895674417324128,0.0004933535339855184,-0.16200272116278855,0.3232406094073355,0.8201845548225162
2945199,0.0022484297772920256,0.0026118291213228055,-0.0020571161278151893,-0.27150181491852404,0.23313641325256051,0.7748609721138598
2945221,0.0011783064313005357,0.006176846710307798,-0.0037037607685369987,-0.18983697951770465,0.27624736810524086,0.5966532717995601
2945243,0.0017861378651933728,0.004883548737141727,-0.003536928586692535,0.03391280192059718,0.4219470859678052,0.39987982006399053
2945265,0.004037216841123116,0.00017452236870909627,-0.002197082735957481,0.23991458941058255,0.5373165787011756,0.28089777261889143
2945287,0.006148004240137299,-0.003904386075722595,-0.0008708004424084671,0.29724834715101983,0.48148280585552417,0.2501371826913185
2945309,0.005820676359009993,-0.004614896425453075,-2.6434258921451375e-05,0.19773279043006375,0.23727428116601904,0.2553792702002034
2945331,0.0024441469896728588,-0.002567056441149026,0.0005191497621762173,0.03310728444084231,-0.038890439384398415,0.26001313601017045
2945353,-0.0019085257783629313,-0.0003496439891363865,0.0007376421281535668,-0.09961767641309534,-0.15031534501289248,0.2737387243443695
2945375,-0.004204092899103681,0.000296430135244591,0.00029760985379194416,-0.1657688778146983,-0.06881490039456842,0.3074930730476932
2945397,-0.003380626107938739,-0.0001666336500331738,-0.000700203119732484,-0.18197466721321973,0.02824093760702248,0.3325319681253137
2945419,-0.0012276681771262584,-0.00022721746749930396,-0.0015385376588744097,-0.16628759629484194,-0.03984436963353514,0.31010216322164924
2945441,-0.0001619026846638465,0.0005732965572816609,-0.001692874367771305,-0.12301103257460641,-0.2438423178612366,0.2490177279552129
2945463,-0.00047573980373528225,0.0010469226036136918,-0.0014895863792012578,-0.07438764387022674,-0.3659009198973355,0.20290023370092444
2945485,-0.00019620389654054682,-1.4865283001951525e-05,-0.0016922530906006653,-0.07676946796777515,-0.22701298991832564,0.20177123662213228
2945507,0.00233535143624795,-0.0020117125515537846,-0.0024961615288948487,-0.17429253446014326,0.12341024727408278,0.2073417407712338
2945529,0.006098458846778948,-0.002940370880959705,-0.0031003287732729087,-0.33310312635958433,0.440709424129664,0.15507052783276645
2945551,0.008032787112462978,-0.0017152674733233128,-0.00246668813120218,-0.44505743926748326,0.4970936617358813,0.034145969476217425
2945573,0.006184055558898144,0.00043708871315706885,-0.0005860531917581459,-0.4213466060078881,0.264130435798379,-0.090400854650845
2945595,0.0018643600399115379,0.001270498239315714,0.0012218319540600003,-0.28580842747880686,-0.09339137498800368,-0.13278241074692532
2945617,-0.0016472351611914974,-7.631112300052811e-07,0.001514329787617738,-0.16083851526380621,-0.37404895312900416,-0.050556161051708765
2945639,-0.0022888151888139667,-0.0018398482409845334,0.00014109234949010805,-0.15044849733764462,-0.4857750011855634,0.13393451093197947
2945661,-0.0007718226752079946,-0.001985512402824402,-0.001751535531155904,-0.24098432864998728,-0.4719346181719303,0.34243203067227157
2945683,0.0006936414593218952,0.0002621416439473649,-0.0030081050359062798,-0.31958592136455455,-0.42694344739758966,0.4686253194618395
2945705,0.0006676840296622853,0.00332891557147688,-0.003425443620871631,-0.28079696291022754,-0.3912074815865142,0.4388960018088094
2945727,-0.0004790898582817195,0.004807336678067194,-0.003406920133681471,-0.11333740947791231,-0.3306522337498326,0.27581864176151627
2945749,-0.0013435474757790328,0.003645659413157493,-0.003084510322920088,0.09757826880871627,-0.22130178431188535,0.08935994574467203
2945771,-0.001046579628048785,0.001063165404798767,-0.0022179796190743254,0.23732103192796725,-0.12145636734582281,-0.013511739202077117
2945793,1.535058890993273e-05,-0.0006493397925906409,-0.0009105483003990248,0.24566949447187372,-0.11260574979922328,-0.00622372936343757
2945815,0.0008812584225070634,-0.00031580790308216296,6.0600959624842855e-05,0.16117838952240054,-0.17290083756964125,0.07532928333230723
2945837,0.0012298388353044899,0.001073644072867731,-5.2244453411859744e-05,0.08849153866226844,-0.16606088999230975,0.2051535396524819
2945859,0.00159961367687867,0.0015176362137407557,-0.0010933861126880054,0.10551027687299275,0.006913735647288192,0.3834485322570214
2945881,0.002448979462062111,0.00014605523560819295,-0.0020936260191346135,0.19144006805223876,0.2672856883330071,0.5762426339990635
2945903,0.003374221799404048,-0.0019755715653654304,-0.0022137848900734107,0.2519459474091749,0.4133282252208643,0.6896653433078422
2945925,0.0035204500695850903,-0.003136488938846147,-0.0014590194787148577,0.21850532570207043,0.32779988040796854,0.6570409816635657
2945947,0.002587651797560932,-0.002721499697475936,-0.00048559649859289606,0.11281294049576104,0.1089425540977704,0.5406549830987528
2945969,0.0011559097209770976,-0.0015342350779084552,0.00013401848989775714,0.012489833174747039,-0.022820687286840193,0.49275892581681563
2945991,9.462543378524835e-05,-0.0007150663324823017,0.000360508617223284,-0.02599050091117622,0.059431810085923034,0.5940645079802971
2946013,-0.0001301489985579662,-0.0006362389601953844,0.0004729523307110814,-2.7989208605110906e-05,0.2751780824218008,0.7578339341045282
2946035,0.0003455485475434227,-0.0007833643335281532,0.0005666254289566067,0.0605654710089737,0.4236241311236939,0.8131466217994697
2946057,0.0010220073293827148,-0.0004847354195555031,0.00038695394271595683,0.12252343903747359,0.37034211474570516,0.6667137336390364
2946079,0.001489714247214471,0.00036285087503261,-0.00035910333836796634,0.16068039118017993,0.15889280170269265,0.3686622268360392
2946101,0.0017929598566460041,0.0012525262348828203,-0.0016541051129064781,0.16122706237161205,-0.0408251375901998,0.03968216475359504
2946123,0.0022901086550623827,0.0016431756969835256,-0.003208392510777459,0.12471870413232587,-0.08928844377615473,-0.23761655768718667
2946145,0.0031075369111993865,0.0015193127848462285,-0.0047840219273045555,0.06544673293311291,0.0031434837434066287,-0.46234208974962404
