timestamp,ax,ay,az,gx,gy,gz
2923067,-0.003097784754509056,0.010196053867632072,-0.003102416503369772,-0.46681058630534206,-0.8293966245214254,-0.7412257788352217
2923089,-0.0017087353841985656,0.0029389978514425767,-0.0006763461504763986,0.06492381740747322,-0.3212267190080916,-0.3491728757559784
2923111,-0.0003709423656877329,-0.002906043065867051,0.001443443888400407,0.35222852416677997,0.028006012162018232,-0.0668132974955833
2923133,0.000780883468862772,-0.005794294071288708,0.0026354473543238484,0.31424734247981456,0.12741895001651532,0.020818031746388396
2923155,0.0012821296211950187,-0.005002769215746159,0.002505939762210307,0.07104439029699469,0.021192627690636907,-0.05658777727859144
2923177,0.0006908654566547186,-0.0017475063501561563,0.0014568691046128275,-0.16249306962256593,-0.10920647412109684,-0.12017819023511116
2923199,-0.0004350530628699456,0.0012709032259865148,0.00023956255118711951,-0.23426636130898043,-0.06909112454125929,0.005002158013467383
2923221,-0.0005658745490056727,0.0019197490669485963,-0.0008383319428457873,-0.14686283088991253,0.17310447200460893,0.28505158081064325
2923243,0.0010784268181335153,0.00028500429424796784,-0.0018145847972596669,-0.025326315535783996,0.4382630447097574,0.49164278459157984
2923265,0.0031152450612970174,-0.0017525991036791797,-0.0023356611901023125,0.005190627071199008,0.4961244612054921,0.45250091951976285
2923287,0.003144093040639212,-0.0024413249513869925,-0.001625897435984407,-0.06878874095454578,0.29364930642340253,0.24592094226553413
2923309,0.0006241428079459504,-0.001596006212867713,0.00046812852879911675,-0.1461891019628121,0.025691864665391455,0.10880899289625626
2923331,-0.0019585883666873223,-0.00039967350396037974,0.002684272268430133,-0.12633424811045166,-0.04302245102181547,0.1713961307157526
2923353,-0.0015841774673262534,-9.243617646036473e-05,0.003179320345079463,-0.027057756446910372,0.15346886717042668,0.32795908008503977
2923375,0.0016612047720272474,-0.0008075102898852208,0.0013942841609279352,0.03015609114461011,0.4074202480477353,0.38307635047811633
2923397,0.004285045231950092,-0.0014909548275420725,-0.0012498806759101322,-0.039012953483794105,0.4628530213421537,0.2893716786092454
2923419,0.0031836221577900407,-0.0009650887393876882,-0.0028550122379268172,-0.1789587406190067,0.30089512076980135,0.18981969577755847
2923441,-0.0008618024948396305,0.0008727531753736177,-0.002994215143863542,-0.25801815798298766,0.14472295069233038,0.21432774065775545
2923463,-0.004103777092840967,0.00299958297283459,-0.0027182953429292674,-0.22354245103661052,0.17742453457960772,0.2832380720263433
2923485,-0.00388249055233558,0.004369618957483463,-0.0027720411727355358,-0.15405077411878362,0.3279535170850114,0.1716573226108974
2923507,-0.0010882146626969656,0.0047469285688249065,-0.0024671795728417895,-0.14339329474989562,0.3820684539744664,-0.22779060688262218
2923529,0.0013551755434954393,0.004349912324150985,-0.0007114822736869116,-0.17157054158747598,0.25830698404806646,-0.7499181406679978
2923551,0.0017703240313096166,0.00314834858576408,0.0021521133432368055,-0.13603165224626887,0.10433612492398926,-1.082859435659309
2923573,0.0009876573848994707,0.001024580057212897,0.004159701383372136,-0.0006563122919947875,0.11250958594239438,-1.026414431536255
2923595,0.0006002738945196744,-0.0014711802836381957,0.0036216167233132776,0.14005327389856337,0.2890576151814545,-0.6271974872207153
2923617,0.0008918139753969325,-0.003061097310069129,0.0008916701080367197,0.16486276273573688,0.4459899810532784,-0.11240304935287201
2923639,0.0011012868775787657,-0.0027552596833774973,-0.0020217351921874103,0.057384676314706,0.409864533406269,0.2714615456213794
2923661,0.0011052770940553284,-0.0008421969112072156,-0.0033856630270229283,-0.09159321771209339,0.199266016124734,0.3951269850297975
2923683,0.0016225876012621902,0.0012914239255114853,-0.0030103340312478055,-0.18463595838199637,-0.014220392978113564,0.30169885632398696
2923705,0.0025960180688715416,0.0023052986150460144,-0.0018162221316657273,-0.18735432602767607,-0.08846644045863755,0.15535836601572928
2923727,0.002541797771700697,0.0018521222141194428,-0.0006335887684277901,-0.11980365911980521,-0.028370547303757286,0.10427169062621948
2923749,0.0004631899055310615,0.0006566484154266966,0.00035001198728352046,-0.03013199242429009,0.061537374564689835,0.16535611117514992
2923771,-0.002048388500018407,-3.295578530312029e-05,0.0011634614548422955,0.01716331198206039,0.10539441897041756,0.24587147607630253
2923793,-0.001862768042260018,0.0007209075263981577,0.0015227033175981655,-0.02140805061147853,0.1196808582194884,0.27389402447635475
2923815,0.002055435785562494,0.0026805906617697202,0.00105380198523337,-0.10745321084605357,0.16091357426590924,0.2795493769105251
2923837,0.006819623146308296,0.004269296804563393,-6.167547758071127e-05,-0.12936600607277643,0.2397856937660819,0.3388145180509395
2923859,0.008225019860197908,0.0037623579901549437,-0.0010475267839142844,-0.01922957458378762,0.3122506081950619,0.47350522470414
2923881,0.004930141568997509,0.0010678626997126346,-0.0012618659688779508,0.14848643139555828,0.3492790777445182,0.6370029561063414
2923903,-0.00045400716399474897,-0.0017562198733727676,-0.0007586808716280954,0.22009429552202542,0.37750395116370283,0.7682309085119557
2923925,-0.0040451561088268575,-0.0021234266938040688,-7.783351175046415e-05,0.13420563875437713,0.4248743733334442,0.8139981022838997
2923947,-0.0038849720564350628,0.000630809296268395,0.0003004901595485601,-0.00044737854899252246,0.4511636479442871,0.7222549916771644
2923969,-0.0008838641090859786,0.004354243108159272,0.00023658194699016847,-0.017295010951051067,0.3820660148587145,0.48588478492090925
2923991,0.0024592560149475904,0.005836818982315777,-9.159139953559651e-05,0.12985552237303552,0.2212727135376689,0.21014450008305394
2924013,0.003948612007444174,0.0037216570158832324,-0.0003425886714126072,0.31452644328435886,0.08528832092995255,0.07198929397868664
2924035,0.002970186459215346,-0.00025147151484764425,-0.0003105072333216403,0.3604212010041482,0.09549363777103406,0.15699993792972008
2924057,0.0008131923218880424,-0.0029259859420460977,-0.00023365383097287648,0.20929223334379946,0.25540715093739486,0.36250747379233866
2924079,-0.0002652453141477265,-0.0025867508862477974,-0.0006097831694127441,-0.031495798261627024,0.45217870503368285,0.5118241785376294
2924101,0.0008659648080210233,-0.00011905295012698349,-0.0014519765960655747,-0.19698521323978338,0.5533990756415829,0.5410084044782216
2924123,0.002791678564937206,0.0023192515474553333,-0.0019415433230900434,-0.2083118731625843,0.49160947698296165,0.5106550391975376
2924145,0.0028596180300386933,0.0032218014168418786,-0.0012240998115139864,-0.11591843127345265,0.2983110523535504,0.4513754130491149
2924167,0.0001877534661912045,0.002412617554919372,0.0004948542568967046,-0.03143676415333292,0.09176640396463971,0.29524131120928837
2924189,-0.003116923448739737,0.0006973115449454015,0.001954861220441122,-0.03945111837221263,0.006721848981308183,0.0026592027055955415
2924211,-0.004115453104502375,-0.0005625307842923073,0.0019547018114689165,-0.1546847486494329,0.08864314045372651,-0.3192038893457214
2924233,-0.0021988821372894386,-6.49998019072958e-05,0.0003732711410789795,-0.3193428027569767,0.2454638770259625,-0.5103634013305078
2924255,0.00033649189557170475,0.0022957415028209026,-0.0017487010835217057,-0.42714261668735226,0.33040511533358985,-0.5391666440484357
2924277,0.000940614824822312,0.004780733863623755,-0.0030177932695635823,-0.3833665855916343,0.2945398273010374,-0.49669548948938586
2924299,-0.0004125893917175581,0.004982869114435832,-0.0027746251148493242,-0.18335063282282002,0.24204892183721244,-0.4212854350158147
2924321,-0.001472409266020438,0.0021615826536353394,-0.0015439873447909978,0.05713349759677521,0.30235201898749203,-0.24570361728591647
2924343,-0.00046784923275249366,-0.0017483699148679041,-0.0003480782536756997,0.16938237503760878,0.45216108126419535,0.04459948533411056
2924365,0.0019043929745634232,-0.00379010471915602,0.00038127442698883244,0.06146978778800015,0.5123042486745588,0.3107507286705135
2924387,0.003305571200533663,-0.0026463954940677587,0.0009877904997989302,-0.19447865104525594,0.35141976111665685,0.4023110760671507
2924409,0.0022833036917208737,0.00045777774172381386,0.0017053933229972216,-0.40180713806711094,0.06567422565938613,0.3398821006445958
2924431,-0.00014039282398518535,0.0032207151918655827,0.0019731164186997845,-0.38793180588305864,-0.09359029146941442,0.2688111540843947
2924453,-0.001425628713903084,0.00415739680801402,0.000987708117772849,-0.14408661811548745,0.014817565739552657,0.2583555647939574
2924475,-0.00014428048769471203,0.0031734731570082935,-0.0011150925584111223,0.16664073963053036,0.26466290458100417,0.23708055940113246
2924497,0.002447157346529406,0.0010612135465774668,-0.002980905004349556,0.34389774306143334,0.40324929106698726,0.1362051992345316
2924519,0.0037006836352570555,-0.0010149040827432156,-0.003196499198376845,0.30433924430082043,0.3238629137164896,0.014419738885347564
2924541,0.002365337521005149,-0.0017980019092152368,-0.0017302149095055443,0.12248390015170581,0.1502611047591919,-0.0068413057334519665
2924563,-0.0002093492938125115,-0.0004252143462324127,-7.930505420196198e-05,-0.048420484036355065,0.06297481853180253,0.11124641117238637
2924585,-0.0016155724038251018,0.0028533300093643147,0.0001224783059583501,-0.08004365214548692,0.10394329587128283,0.29028358553433764
2924607,-0.0007931857427527123,0.006389086523745828,-0.001352666323918719,0.07153281550474598,0.1756982561677649,0.4254300495511279
2924629,0.0011898484186667452,0.007865547694160051,-0.003197439806691448,0.3503176415258874,0.18651310106783883,0.4761969009215002
2924651,0.0024386686611964055,0.005844204695195515,-0.0038938011885680315,0.6206926845565073,0.14280641477402367,0.4786697872576865
2924673,0.0019369956699147523,0.00112447467879356,-0.002991319404769416,0.7345534128102766,0.10136060367486655,0.4978345130708982
2924695,-6.081010384133018e-05,-0.0033703151341052642,-0.0011090990378556619,0.6285448063292838,0.08206409595622358,0.5636963252673132
2924717,-0.002774618837795568,-0.004641711546889141,0.0008531254271504638,0.38093276823261024,0.0689225338037138,0.6295993347457971
2924739,-0.005294660630130829,-0.0021963402322606714,0.0020762388144624556,0.16469426443297813,0.07875872215657086,0.5969886029920848
2924761,-0.006342759989848603,0.0013148152673228902,0.0018194665675377922,0.11998501271220839,0.16760188372583829,0.4155934539744527
2924783,-0.004831799918667881,0.0023700440559312865,3.408255234216343e-05,0.24843808944972184,0.3401320991764517,0.17829292798494661
2924805,-0.001457267531759616,-0.00018683067051245854,-0.0018566346244988875,0.41891258555930466,0.49602981775367716,0.08806439208867002
2924827,0.0010965355022352014,-0.004073354682149293,-0.001789199323616954,0.4795560526466365,0.522354636842552,0.27431386375276073
2924849,0.0007226162403257058,-0.005767402644528493,0.0006083563049650868,0.3777131065776096,0.43007411070179985,0.6137182461247789
2924871,-0.0015983248364035013,-0.0038242445995144026,0.0030717280709354994,0.18350567609099136,0.3476985932202949,0.7689317322230121
2924893,-0.0028381535766815883,-1.954231603792174e-05,0.00288598866865534,0.00878894796222113,0.3725988738025521,0.47512762861540137
2924915,-0.0014271117185723468,0.0026329558350655195,-0.0001611055939888725,-0.08604104435714965,0.47105337404191344,-0.17653330345638282
2924937,0.0010669510358335703,0.002615073116443194,-0.003577062893341655,-0.11120433240556264,0.5412224494143597,-0.7629360686130189
2924959,0.001843323750429879,0.0005933985789932103,-0.0047387200143985935,-0.10256959097237403,0.540345376277254,-0.8687562353710284
2924981,-0.000144274412586603,-0.0019450972198606319,-0.0031362012890326285,-0.08470127623571576,0.5210550203769948,-0.4202984278254561
2925003,-0.0031793128555092846,-0.003978438417221487,-0.00026961423688911927,-0.07682000248139255,0.5595498320697825,0.28493467473819695
2925025,-0.004236195109091907,-0.005036550653988898,0.0019390504565359218,-0.10771025670226704,0.6817369321618776,0.8358311817098452
2925047,-0.0014064182185828068,-0.004942137237662712,0.00250504830453529,-0.20090811301152808,0.8615747675735976,1.0052166597630439
2925069,0.00449684732917628,-0.003993853566178018,0.0017972440697099539,-0.344672524835516,1.062972790968938,0.8752914876477595
