timestamp,ax,ay,az,gx,gy,gz
2972259,-0.011851934443280837,-0.014101802004517853,0.010348339250473642,0.3622333642853819,-0.0884095439074871,-0.5215447469058422
2972281,-0.000574494999683581,-0.017626943302155546,0.005203188562612454,-0.05690922704283366,0.28366983904619547,0.013970152988924414
2972303,0.004946527166113797,-0.013954663348026496,0.00046213116715029915,-0.5024301728557387,0.2808299607150201,0.21572709146674185
2972325,0.0034543091407303415,-0.0019361377388322433,-0.003461134725215121,-0.8446536251296155,-0.05062073492773047,0.0794336323011301
2972347,-0.0012216893228582629,0.012350151605033074,-0.006144720459704639,-0.8630834933190865,-0.3198259438226625,-0.1043167213846211
2972369,-0.003929601405919401,0.020438535870314942,-0.0070385374382513745,-0.47733072925918185,-0.2591774749472713,-0.09253972350863195
2972391,-0.002770523897410806,0.018294063532557286,-0.005534372020719978,0.12447779746742749,-0.005473151094422036,0.060739820832368514
2972413,9.445596253732314e-05,0.008978515964780581,-0.001832223850057985,0.6211084243710604,0.1415735501987127,0.12666124060202769
2972435,0.0020789728987399307,-0.0009243585484210155,0.002042214094714803,0.813652883583163,0.13751561893938324,0.025917730930465628
2972457,0.0033953641609285237,-0.006800739301454224,0.0030737590620415743,0.7271054837370045,0.20054113743189028,-0.05811147220843582
2972479,0.005337741450664694,-0.007928324799504756,0.0002035613319358665,0.49262588973385013,0.4068720331984531,0.07985735636241285
2972501,0.0064045871687446266,-0.005560608730422827,-0.003951386756267898,0.20930331275401926,0.49916957199493833,0.3812381899902745
2972523,0.003035399803625498,-0.0010681797880874582,-0.005498250946757011,-0.05308523265960216,0.23717926782629686,0.548976555120148
2972545,-0.0049485735592674765,0.00396908580161004,-0.0033691767556514973,-0.19755036358312064,-0.2044836698936519,0.34321597821694866
2972567,-0.012057440631183277,0.007563020143166968,-6.0271984511640566e-05,-0.1382602468635073,-0.38187562494863064,-0.1953942413354805
2972589,-0.012246208548522342,0.00832773203755054,0.0016587318299934716,0.10998593567577548,-0.08647758630844231,-0.8035631495587007
2972611,-0.005437959062139108,0.006257499885416768,0.0016706740828925065,0.42949486717044943,0.44008135661084735,-1.2253729845794425
2972633,0.0024539718376437912,0.0021493478178920087,0.0018904442083134032,0.6805205676185213,0.7913699159401146,-1.3772360105075663
2972655,0.005687397028210948,-0.003084061594014468,0.0035790232719317373,0.7603911822446252,0.7951896007416598,-1.3232862552900255
2972677,0.003917534533104658,-0.00807607686584659,0.0057597376542791335,0.6211427391873102,0.6163895086595237,-1.1342413020448157
2972699,0.0012923983263961997,-0.010673134114053767,0.006048751226923728,0.2938401712452819,0.5254936091139923,-0.8134627150722431
2972721,0.001190309829021945,-0.008997976875294451,0.0030053964640041407,-0.0935538519358368,0.5989619076779541,-0.37770598963613766
2972743,0.002703403796517837,-0.0033377721174916997,-0.0020778023337519416,-0.36163686786311205,0.6565125878836592,0.03692662019191467
2972765,0.0025152052103093766,0.003164520267751305,-0.005864772919862517,-0.38188144240783584,0.5001748621756488,0.23127631485037164
2972787,-0.0005833969840724066,0.006274205839074678,-0.005853761460965162,-0.160112661718034,0.1793913378491616,0.13778953606633929
2972809,-0.004196518451899269,0.003906945766824153,-0.002523811365715049,0.16185801209785658,-0.045152700229445106,-0.08460592627822616
2972831,-0.005370527151205736,-0.001920060252115058,0.0015325511065201883,0.38920172309443746,-0.0002853316441819888,-0.2000121655944819
2972853,-0.004004914661768823,-0.0065598240790149575,0.0041346840724618035,0.3924689604298591,0.21385949640063884,-0.12851665612089572
2972875,-0.0025415395968775172,-0.006631945016872422,0.004768934906353327,0.18803920908325777,0.370703477367567,0.007941497066573494
2972897,-0.0029271749026432013,-0.0027665573899708974,0.004010987408964976,-0.07521338689527873,0.38450901429888495,0.058294672996553346
2972919,-0.004686716699798438,0.0013397209773851298,0.0026411305374129048,-0.21845387952190312,0.3684278791216538,0.005186022337190245
2972941,-0.005709313951064602,0.002396959827429619,0.0012144151749090078,-0.15499885186286894,0.45440078075778195,-0.05653322298890761
2972963,-0.004351903170287807,9.449029571464298e-05,-0.00012622983499687942,0.05397399804797394,0.6161912762386274,-0.0520437661327098
2972985,-0.0009758064684001488,-0.003242541052976202,-0.0014458493024317345,0.24862397038225625,0.6831887524244828,-0.002071755932725277
2973007,0.002236021919260861,-0.004935531110313668,-0.0024754460324435826,0.2898224708031408,0.50819463441605,0.003257437584950571
2973029,0.003184035784452519,-0.003955172633502134,-0.002606677383698526,0.16427130042669216,0.11165334669592925,-0.12583752169643084
2973051,0.001690207621847341,-0.0013398578041133047,-0.001635356723720778,-0.005261454175109008,-0.330078892672116,-0.400795504736548
2973073,-0.0007255861608309862,0.0008408719604474681,-0.00012043877846152961,-0.057350742763167845,-0.6171208620099583,-0.6975462827929709
2973095,-0.0025266472730304705,0.0008251593849631642,0.001230433478771151,0.07956801122388758,-0.6417505118898885,-0.8027667580614803
2973117,-0.0030367065146749248,-0.002242914938174886,0.0021561532247557627,0.3228992570184195,-0.42364350531652856,-0.5906272609384131
2973139,-0.0022084161874912998,-0.008005294067809782,0.00260004737227145,0.4675314878089296,-0.10505121214002514,-0.1778082440756436
2973161,-0.0008111915581256912,-0.013951973611008426,0.0023444955494584625,0.29995743030426036,0.09010668172491279,0.13407762283818198
2973183,-0.0008663595606273322,-0.015268674366080634,0.001380448809684489,-0.22752847149565325,-0.0064073358734759115,0.103135558219333
2973205,-0.004337208107233596,-0.008084710368427497,0.0003671898368839361,-0.8589868389637929,-0.3199084343306669,-0.25351299271885036
2973227,-0.010278661135423316,0.005406608516490215,7.981805066784703e-05,-1.1187071386411973,-0.5098921615572913,-0.6872854893716267
2973249,-0.014093176908515217,0.01624197752139365,0.0003866469361373882,-0.6761273075719546,-0.24676682024111318,-0.934690944243208
2973271,-0.011336154506026071,0.01557050181975787,0.0003661754286859885,0.2872111300871427,0.4247438278257982,-0.9162214809959728
2973293,-0.0028239347960454585,0.003129421405555875,-0.00037433934592451436,1.1255732170558306,1.0536885317877842,-0.7267507758596087
2973315,0.005078265490715636,-0.011959225695046836,-0.0009948772789461105,1.2390655117349902,1.1946275539777431,-0.4544961622784406
2973337,0.006290983534748511,-0.019288660037284404,-0.00040596583013492173,0.5715129462949143,0.8414158696992557,-0.0847588195504691
2973359,0.0010139535818475876,-0.015642253956976604,0.0012368230568907293,-0.39211260026164985,0.39998953412575694,0.3801022399300063
2973381,-0.004631031747340569,-0.005720963712983667,0.0023039220455795388,-1.0759547996280823,0.2510300885251987,0.7906153300675741
2973403,-0.00489233349998562,0.003903894321164289,0.0010327631243542768,-1.2241265163014299,0.3946254563054578,0.9388217154715797
2973425,-6.967702995368262e-05,0.010189828371471015,-0.002709146264086386,-0.9310089359682266,0.5087882539303028,0.7547913765157264
2973447,0.003992929474258629,0.013473059797790532,-0.006702915164691318,-0.40249582955010405,0.2989957983170595,0.34730088023640476
2973469,0.0019146740693274707,0.013811245924142517,-0.0075759314886406645,0.2256050050687513,-0.20974250387321958,-0.12372694203447045
2973491,-0.005753439455888362,0.009226504657305718,-0.0033967072040763705,0.851962548178511,-0.6869447156717056,-0.5366278190526894
2973513,-0.01303508139440031,-0.0016752085674662698,0.004330516013523742,1.2791909504679921,-0.7959512879553028,-0.7817853735036021
2973535,-0.01430164326767578,-0.015686099581157947,0.011188003797339485,1.222167021686027,-0.49241674156239923,-0.7445002752393534
2973557,-0.009343216124492165,-0.024816692720220395,0.012826771560667603,0.5339902651702104,-0.02526798113577979,-0.37492257004489327
2973579,-0.0029455892175087803,-0.021708805589797216,0.008145286965926488,-0.5501847314784921,0.3355230165704096,0.23778406416284564
2973601,-8.224703992115289e-06,-0.006312428280474953,9.52559718366084e-06,-1.4480608605750487,0.5236443862057749,0.8764633234865489
2973623,-0.0013887202524954553,0.012707391498192123,-0.007017452408614446,-1.6001038516704085,0.6274550159603512,1.2770447806876493
2973645,-0.004221768039535147,0.023778542782808117,-0.009733987463369495,-0.8869175281676459,0.6853990116286175,1.2353709129268418
2973667,-0.005464490701192009,0.02064986569520857,-0.00765774043011696,0.2679540118111119,0.6055900121829859,0.7247683385440695
2973689,-0.004588883465391379,0.006279389309759194,-0.002432164239632743,1.2029431395144328,0.30377724819209473,-0.030729831606181493
2973711,-0.0033701901099405,-0.010184038605197322,0.00339360501509116,1.4786605517538274,-0.12648773284163395,-0.6382301883592232
2973733,-0.003983632108859319,-0.02016903940460574,0.007442892386936551,1.1280147682141044,-0.43059920682391706,-0.7833902511393733
2973755,-0.007094535155544011,-0.020827863895232345,0.008426470309899205,0.5354967896314428,-0.3804221934603515,-0.4499471096243237
2973777,-0.010835326447291262,-0.01540229198928262,0.0065896446315766005,0.09942685063970508,0.061090686297037164,0.1039461942866049
2973799,-0.011832075902454536,-0.009479129461194965,0.0033023810371637244,-0.033231352473493805,0.7151536535284507,0.5806464655866964
2973821,-0.008353364533841045,-0.006424035480193218,0.00011917677623288366,0.016388361339177322,1.2816723081087642,0.8399662151216738
2973843,-0.0025017034321331037,-0.005589358746530991,-0.0019388416508361813,0.05049688588089734,1.5036085459051378,0.8947008735626002
2973865,0.0015649098001676316,-0.004479681312771574,-0.0025331896749701834,-0.0016840706552038297,1.3282907642251705,0.7941532189806936
2973887,0.0016614077057738204,-0.002235949953026147,-0.001830394633502176,-0.0551236444972272,0.9446268337810187,0.5707929118947835
2973909,-0.0007111304916538613,-0.0005155509248096874,-0.0003495061486253399,-0.01868471971515158,0.6387480239128194,0.2730970344726247
2973931,-0.0026139244554158787,-0.001086822945116937,0.0011908450689407481,0.06616562381174916,0.5751343067388235,-0.024414072982132752
2973953,-0.002943485547038747,-0.003410823460768296,0.0022278698983136573,0.06885118946361919,0.697889731994106,-0.2656909044674659
2973975,-0.002926087346430822,-0.00523747367454741,0.002640827842181952,-0.05755111273784864,0.845278425208757,-0.42122369813203936
2973997,-0.003565925430671114,-0.00532660104390302,0.0024634382456744644,-0.1947058881773472,0.9473883521235716,-0.43598828205349055
2974019,-0.0035945493895744507,-0.004798796898756933,0.001384137331622189,-0.18836261199114424,1.0687462547760238,-0.23269541350921066
2974041,-0.0009105142369090994,-0.005422359159505268,-0.000920238809614984,-0.04480377929044909,1.242999054790199,0.1803846393512866
2974063,0.004092615334934676,-0.006993714233841478,-0.0037444111203351485,0.0532234986189814,1.3328687784453805,0.6335257578248519
2974085,0.007834648255295694,-0.0071442121216680225,-0.005289745949919005,-0.04734147779828057,1.1392689366173503,0.8805377151759459
2974107,0.006997631424805849,-0.004073732954126835,-0.004272040421293408,-0.27483578178279433,0.648494130029565,0.7779587487660409
2974129,0.00217897486012086,0.0007818494872071027,-0.001382661298099458,-0.38409037519599043,0.09452718242355158,0.3851651709617784
2974151,-0.0026512395514118096,0.0033766226010476783,0.0013033802623212002,-0.209153061336449,-0.25963070922366926,-0.09384828984976273
2974173,-0.0041473664262858196,0.0007954504751080897,0.002287590982924345,0.15927186076965927,-0.3517298499537669,-0.4505023874451779
2974195,-0.002548196619638742,-0.005594120525358387,0.0018313280594513886,0.459224506907178,-0.2955123641563395,-0.569341982375513
2974217,-0.0008990377376415984,-0.010990421633554494,0.0014308580855660765,0.49215642285085326,-0.1885100240353056,-0.43837592986123836
2974239,-0.0018882837231875321,-0.011410630272144593,0.0023565321224738403,0.25052493576045476,-0.029817705200258452,-0.11306550198515639
2974261,-0.005441723157549287,-0.007314969798651486,0.004551027458276556,-0.1422209323712231,0.1872731843935506,0.3171349753914057
