timestamp,ax,ay,az,gx,gy,gz
2951161,0.02487480842391754,0.010622090722911568,-0.015139841726126264,6.645866860726448,3.889467361431465,-1.7040107197045624
2951183,0.035204559651834534,-0.03757207672915793,-0.005002716888643139,5.3267422021037865,2.4130505864183296,-0.21691513289429026
2951205,0.03370654069964545,-0.060677204298673376,0.0025640937311016765,2.9882021448564893,0.4999178142788615,0.6861333002248331
2951227,0.017956052150543352,-0.04979622534300422,0.006099111431590231,-0.2942801586626395,-1.6028593894916068,0.8489301731842603
2951249,-0.0038814617062767794,-0.015989349307986483,0.005734421097271688,-3.3230289637057773,-3.058533704416142,0.5525643331357448
2951271,-0.020751133390344765,0.0198077636676732,0.003074110728394719,-4.785206929937684,-3.197085816819595,0.16609423547490498
2951293,-0.027441346543048185,0.041218691363900266,0.00048827468176590726,-4.297966836718301,-2.099832771227012,-0.1277411878690278
2951315,-0.02615320643432657,0.04419303556678956,-0.0002867582437006414,-2.5869644401488654,-0.45613721297006415,-0.27716337357567317
2951337,-0.021408889973604472,0.034640668935644006,0.0005489390175754518,-0.8037436236658665,1.0240856627123165,-0.18893851032151296
2951359,-0.015527023620577063,0.020975361553930233,0.0011244658746543997,0.2707317890557611,1.9948693269453723,0.23139698913180154
2951381,-0.008926076400349987,0.00888418094330206,-0.00020026616500949836,0.48564931715285703,2.419362818018637,0.86565183057036
2951403,-0.0027762828421963735,0.0012352300155510953,-0.0031855136911054568,0.06098364158672641,2.3590720714518314,1.3399811534380797
2951425,0.000366903713955759,0.00023991243295423507,-0.005974875569896972,-0.7230260132070102,1.914067247935182,1.3032294159672095
2951447,-0.0010852686209898246,0.007364691541813474,-0.006822456237829907,-1.5781592758517908,1.285083386758542,0.7538190241229062
2951469,-0.0054631591533029645,0.02035755909196084,-0.005429625541291679,-2.1365751452257786,0.7410153280303868,0.05204018933280168
2951491,-0.008948349197378396,0.031777322393714995,-0.002851565166752483,-2.057678294752823,0.4513380146519205,-0.39542492379379696
2951513,-0.009364800023199884,0.03298947478212209,-0.000640174310703502,-1.3191939290563692,0.3909694926684105,-0.4441099735156692
2951535,-0.008292637314551961,0.021228433287085773,-8.336456934266859e-05,-0.34080533489796133,0.45639614508782406,-0.23939988211538757
2951557,-0.008828091055729915,0.002922952926984236,-0.001464223736143434,0.30374106340491064,0.6357448842956268,-0.026663964643165502
2951579,-0.011542880405069945,-0.01030477728206826,-0.0035395705873582707,0.3489770100472647,1.008550388623748,0.022711859862038955
2951601,-0.013627299681490908,-0.0098316646183529,-0.004326230923258265,0.013766724632093962,1.611991843644395,-0.13545382385863647
2951623,-0.012481407196491752,0.004094687645089567,-0.003132649279057421,-0.25138982736985943,2.371967053996648,-0.4384425008644697
2951645,-0.00920326934354341,0.02323754786405241,-0.0015712612200511169,-0.15365694654975653,3.12747582932041,-0.7645060666485148
2951667,-0.007310443510774184,0.03777129401798264,-0.001839804641916947,0.268705896071213,3.628555919248989,-1.0043462437868584
2951689,-0.008510153622706264,0.0424260037268924,-0.003957123976408041,0.765349783388676,3.546225617853798,-1.133437473780358
2951711,-0.011217342896525536,0.03788366650967825,-0.0053756012860279,1.1105010343994903,2.6684526175711167,-1.2264432030732721
2951733,-0.013033431879724168,0.028034849660577028,-0.0037030259268044942,1.2506182025306731,1.2098685990743598,-1.370921717109672
2951755,-0.012951558521354966,0.01630647559670977,0.0006504562113247665,1.271774674793342,-0.1482138736875393,-1.5244700839144552
2951777,-0.010908129720235554,0.0035288819871114444,0.005037292641819113,1.2327295492933479,-0.6905956308831375,-1.4440966443414025
2951799,-0.007057315525588481,-0.011117683980014928,0.007473317239955493,1.0098692479160487,-0.2228624258696556,-0.7878615757990939
2951821,-0.002605654049863022,-0.02627633441331067,0.008295771813153684,0.3163286267431938,0.8094588491346864,0.6403680972325252
2951843,-0.00020134303644550188,-0.03549914032726106,0.008833869433971225,-1.0569015973813318,1.7412832191780336,2.650288737340569
2951865,-0.0019310472358792664,-0.030093784785581505,0.009073947951258831,-2.927930021084097,2.1994019351936522,4.623624350489424
2951887,-0.006763117626595937,-0.007210363340864069,0.007387602476693079,-4.615705088973784,2.252005236431502,5.795881766296317
2951909,-0.010706427225927913,0.024496069947127965,0.0026887532204511217,-5.232120421873615,2.1789206197236046,5.743857819678554
2951931,-0.010103865621979938,0.04890617690309362,-0.003681773851727441,-4.272295958243158,2.1628645521588026,4.705278465348795
2951953,-0.005026570040139268,0.05390233433671888,-0.008590401059448366,-2.0718883385022453,2.168256520009057,3.4060617720981714
2951975,0.0007140695763159662,0.03980119664029943,-0.009500535092995768,0.3105280263154888,2.051899566785046,2.4862796972865864
2951997,0.003186217594429909,0.01754092265071486,-0.00632225521689337,1.7705873146497733,1.752509191273387,2.0414810760343216
2952019,0.0018330300650120169,-0.0002210991852159283,-0.0013552516585917467,1.8548607063197777,1.3733665301864293,1.741813557959623
2952041,-0.0008358382223579563,-0.006623605804031818,0.0024130844538386405,0.9224095327714689,1.1006260785847402,1.3652629768789837
2952063,-0.0024809399318096166,-0.0019637063460054157,0.0031942950565512634,-0.26585628504991704,1.0416417308133954,1.069485193066572
2952085,-0.0030539684284815495,0.009268394742286872,0.0011009109611374206,-1.0855284514305246,1.125662429217141,1.075668500031314
2952107,-0.0037921126452025015,0.021391607214244625,-0.0023574110288480843,-1.29765842430608,1.16979180876517,1.236224947426023
2952129,-0.00498391874753757,0.029042622542255783,-0.005221723902079719,-0.9812432403459559,1.067213209930607,1.105851835032046
2952151,-0.005418480345587157,0.02864596794710903,-0.006041352452663529,-0.37292578447902824,0.9052446752612362,0.46491735342594764
2952173,-0.00406990056084224,0.020348776282792934,-0.004568176533526025,0.24173751631754764,0.8677269520861302,-0.343850632594639
2952195,-0.001811699817964263,0.008512878253658259,-0.001812171450557342,0.6040642217868085,1.0183923773948598,-0.7068038422921319
2952217,-0.0009053886397599706,-0.0006724575161174593,0.0006413060462675759,0.5702366685167378,1.216734412986053,-0.3622243333054638
2952239,-0.002715805371146527,-0.0030447841591625044,0.0016647577076550433,0.18510391416011943,1.2754773515901627,0.35309803100929904
2952261,-0.00618720008418511,0.0011947833955385503,0.0012453628373870593,-0.3295804345401367,1.181362530752306,0.9024445902919924
2952283,-0.008644571993609459,0.008260019410730058,0.0002649053971095317,-0.7014671409240432,1.1115467055072727,1.0968838669259962
2952305,-0.008037517125624078,0.013668846066425938,-0.0002880172651335923,-0.780517771435656,1.2154859394136797,1.168244275920417
2952327,-0.004605029940938573,0.01501626196940985,3.6482897324682976e-05,-0.6328259801126517,1.4265252335695133,1.373720345411469
2952349,-0.0007369134666685392,0.013048069208428255,0.000967886395201886,-0.47262449876495505,1.5392895262561936,1.679372444441977
2952371,0.000725985929986355,0.010655939529593088,0.0017787632758755557,-0.4725275357188041,1.4575337631592258,1.8773480976972674
2952393,-0.001452319215162041,0.010442923408948144,0.001871979526659916,-0.6103328044365437,1.310301009312488,1.9031694643636279
2952415,-0.005865978445200975,0.012506659664489543,0.0012515145436489642,-0.7057814330996087,1.306919717479826,1.9076561342559242
2952437,-0.00923908844935328,0.01437779775764882,0.0003727036904087677,-0.6250140249809808,1.5091566129537237,2.01608624478012
2952459,-0.008697838722053871,0.013479031161135132,-0.00041439915956405243,-0.44003442604674115,1.7672961687891677,2.133673684985529
2952481,-0.004119776493088525,0.009941986276344418,-0.0010890949672835082,-0.36350018162904163,1.8635912277719027,2.071780837151473
2952503,0.0014219563236407755,0.006916132682366066,-0.0017076975638069375,-0.5260430987744616,1.7017685198249513,1.813318412583832
2952525,0.0040807961174959256,0.007761977769165535,-0.0022177736087709795,-0.8324264259755407,1.372258610168285,1.5490682529116777
2952547,0.0026724270302459427,0.012670204528045355,-0.002543450948721874,-1.0356725636838677,1.0602252085789996,1.449507581798845
2952569,-0.00046647458158777385,0.018162283082046784,-0.00264545914922068,-0.9473540647104794,0.8958145549904106,1.4938426203969748
2952591,-0.002325881094256974,0.020279404053003946,-0.002492539769341631,-0.5920223922608356,0.8771678751279108,1.5577269158441804
2952613,-0.0025028350931919864,0.018257564577504732,-0.002101345134916136,-0.17836052351753245,0.9152946579007507,1.5836641420900504
2952635,-0.0030303585012642835,0.014669234593237844,-0.0015466660438121754,0.07917982904599176,0.9355499727187289,1.5851021835624841
2952657,-0.005144018629306984,0.011995358566640198,-0.0008466975107335623,0.1221878057265244,0.939496212651025,1.5277710984373682
2952679,-0.0071799566679876204,0.00981959885851646,6.562569374123309e-05,0.04411716584118572,0.9898009949823622,1.3222777812220037
2952701,-0.006390873017967067,0.006003368134497201,0.0011998056373213146,-0.0611304746256185,1.1383135678624727,0.9795254540339215
2952723,-0.002534742917390752,0.00035517032228836855,0.0024021114335527273,-0.2233451230302508,1.3501749177553928,0.7087953640599662
2952745,0.0012621704915422411,-0.003747188333039395,0.0033449450212186117,-0.5462739502913433,1.499477120104623,0.7672523605906231
2952767,0.0015663017120645206,-0.002161144303680043,0.0035540306374594816,-1.032808823615422,1.4702085833214182,1.1704859654433044
2952789,-0.001858288968357271,0.0054339588656509286,0.0026254729886506993,-1.49221040449529,1.283396806631063,1.5833973926664113
2952811,-0.0058029841743980435,0.01423338062469233,0.0006216919963227082,-1.6681451245935959,1.1104001020528385,1.5730795377869375
2952833,-0.0066357555540508895,0.018184169395278272,-0.0018062212380030864,-1.481393275517488,1.1217456698495538,1.021082199708944
2952855,-0.003617446513935967,0.015301356734764814,-0.003800145967054898,-1.131280522212768,1.3014882064056585,0.263548386596281
2952877,0.0005199874082396671,0.009003109121854359,-0.004765070116788178,-0.9341462038299377,1.435553184568371,-0.21823366933825142
2952899,0.0023164865679706974,0.004454575962572441,-0.004509632447213705,-1.0560768872731268,1.31826538951329,-0.23299617731749497
2952921,0.0009478025426594207,0.004105830335168942,-0.003202802619421611,-1.400163787959637,0.9670786127182962,0.01355875069467319
2952943,-0.0013551480408505933,0.0066613922612566165,-0.001422617920820455,-1.728447703837225,0.6113209763884684,0.1992106564778154
2952965,-0.002227539033708485,0.009516611991286818,-6.250820780117617e-05,-1.8675071060859632,0.46832569160802184,0.20834275200275873
2952987,-0.0019465499248796955,0.011492645971779774,0.0002620947214821557,-1.8092541632565706,0.5466808444772656,0.17710251612133915
2953009,-0.0026680125167234973,0.013168411501894494,-0.00020370012628014383,-1.6530271071978915,0.6802433296827133,0.2758071797171742
2953031,-0.00502851079457013,0.014959277689698557,-0.0007057249680638802,-1.4819353889690596,0.7361494468008196,0.49807124639161154
2953053,-0.006624312022244619,0.015638335961231806,-0.0008875205184880198,-1.3131561175750326,0.736410752597577,0.66984602411451
2953075,-0.0048199398546906165,0.013608938951728483,-0.0009377569339757307,-1.1595623554579242,0.7650110794145232,0.6426024277412523
2953097,-0.0005267568038377943,0.009662203853829491,-0.0010109882294023875,-1.0868361796653923,0.8399229621851502,0.46730098438790946
2953119,0.0020129855404327347,0.007427475032750809,-0.0010680685652473627,-1.1666945254832335,0.9338568642820788,0.3779657375636425
2953141,-0.0006585353769007682,0.01020001108506597,-0.0011549356575502542,-1.3997106927202956,1.0476628146513922,0.58390569883916
2953163,-0.007796891091372262,0.01740829145992148,-0.0013445299908453037,-1.7188812193501997,1.1891471867043475,1.0564285906436397
