timestamp,ax,ay,az,gx,gy,gz
3220067,0.00784063080473984,0.00842838522138637,-0.012182078759630774,0.0688722230943953,-0.9985587738180568,-0.1676837155725607
3220089,-0.0020032867745104046,-0.0014621488656344469,0.000237433511801234,-0.5025512313216054,-0.43542848740742335,0.885532623177598
3220111,-0.007247257348994966,-0.0031928886300179662,0.006385383385467487,-0.8864520626681431,-0.1086151698774013,0.9935817468269293
3220133,-0.006953395236885774,0.003028525406737243,0.004961695326233527,-0.867270141811807,-0.010741456035275241,0.10206993277868646
3220155,-0.003217812565852495,0.009594316288366529,-0.00023186189696880807,-0.3617780376553495,0.09137682960350138,-0.9137295742321486
3220177,0.0015809911377073415,0.009673191267779154,-0.004228669602548711,0.3975953257740706,0.3615942734148275,-1.1086966513883882
3220199,0.005551495874692786,0.003074182600292546,-0.004510198972929068,0.944822504783875,0.6464432726317323,-0.4122880863850817
3220221,0.006671102102326282,-0.005000286377762342,-0.0017234997976560411,0.9165302926213522,0.6196018441460919,0.30738861404342277
3220243,0.0038020014399765545,-0.008904621151568409,0.0017651301600698705,0.34023612836505474,0.19812770840900415,0.17687717617147308
3220265,-0.001200455176881054,-0.006065077797935019,0.0037332999173112025,-0.3825465825342905,-0.2859410093205759,-0.7520139996011317
3220287,-0.003963029917332087,0.002381103545657853,0.0033266653095652484,-0.7724974898926908,-0.4140692062640883,-1.6145288716204833
3220309,-0.0016171627419715737,0.01242834946212962,0.0012630486435088577,-0.5957588432846376,-0.1414190794779058,-1.7021400498133965
3220331,0.0038539422916771247,0.01858260695097155,-0.000930271320114759,0.015124247218236936,0.1586253481507146,-1.1360591171944512
3220353,0.007310471572468915,0.016242078280297997,-0.002043032895613385,0.6785946055568001,0.11651366166653755,-0.5637986432691201
3220375,0.005578677298567916,0.004876248736858934,-0.0018014308772521268,1.0061283754165977,-0.24165221584590257,-0.3774353432538393
3220397,0.00020696725343706732,-0.010442480757894671,-0.000715416318651649,0.8175020566454686,-0.5618491715553948,-0.386819808649327
3220419,-0.004697826605489494,-0.0215002472453477,0.00032809385815524544,0.20340773321884395,-0.5615579335870806,-0.22234430789408496
3220441,-0.006474631694827136,-0.022065304437531744,0.00043252974549119283,-0.5872012702412464,-0.29560575366885206,0.1114195458402078
3220463,-0.005644064249362686,-0.011572284590575186,-0.0007355083004519071,-1.3034834745233,-0.04422557438080263,0.21160791212242538
3220485,-0.004332881223056507,0.004987868930109585,-0.0024403990240809592,-1.7402898863723413,0.002434368316765828,-0.20774006349098534
3220507,-0.003476174299523345,0.019898892924111556,-0.0032975620856932216,-1.7155039387442625,-0.0753624182847915,-0.8999841115750048
3220529,-0.0018489522554089059,0.026304305515995996,-0.002564861304012944,-1.1578646454951442,-0.05126581626486438,-1.301608774569556
3220551,0.002045754962826368,0.021533891145945616,-0.0010024044433555597,-0.30330728277967745,0.16173494998882756,-1.153383479716765
3220573,0.007541917138406142,0.009037305733545537,-0.00033133175010397885,0.3021212213670419,0.37796460498282064,-0.7835042195968074
3220595,0.011734375548815571,-0.0029977195931227066,-0.001725596075064737,0.19440811618283751,0.30855383868391134,-0.7080911564323155
3220617,0.011733172331098348,-0.006759522365239806,-0.0046342145404042225,-0.5415514975872434,-0.14643951628154447,-1.0537650953231252
3220639,0.006875568338716339,-0.00038751775023315407,-0.007013316928652868,-1.2861329690601737,-0.7843903334959743,-1.5012358908888777
3220661,-0.0007707796973658672,0.010684886420678118,-0.006940203763064004,-1.4385791820997507,-1.26016617827963,-1.7342776435292424
3220683,-0.007605939840332749,0.017969899916074058,-0.0042867594362784546,-0.9416262005233488,-1.347194197153631,-1.750830451009138
3220705,-0.010590326050864504,0.016373299628676924,-0.0009192936458781879,-0.26551853673389814,-1.0771403169369402,-1.6978748509547752
3220727,-0.009107157022949638,0.007826263872664182,0.0008401804894203385,0.05746173637890224,-0.6935830089830268,-1.6073314532655987
3220749,-0.005420511983909495,-0.0006849020357106822,0.00018601909211677682,-0.13866668856685954,-0.491747637061224,-1.4466104711234604
3220771,-0.0030826179008084575,-0.0030756148250379476,-0.001578656551793343,-0.6049519841446575,-0.6195533217162019,-1.2810852828491228
3220793,-0.003984986998786958,0.00102143048751647,-0.002498514242867771,-0.9545331612623159,-0.9347041596154133,-1.1680646644100774
3220815,-0.006572681056933468,0.006754169076144064,-0.0020006190129811894,-0.9741481356378908,-1.0911085464564754,-0.9734404656298786
3220837,-0.007587415110407801,0.008923878592776716,-0.0012402796580122785,-0.7450992259989427,-0.8818560873267817,-0.5593178160848802
3220859,-0.0058355888293615404,0.006500106914648618,-0.0015256011986336817,-0.5432681503482836,-0.48967547551570884,-0.1549084079122754
3220881,-0.003334703845248137,0.00306517712722693,-0.002886383539720844,-0.5985668815167349,-0.2853885918519601,-0.2460340766128301
3220903,-0.0023723765783082973,0.0030601073786406907,-0.0041777634819756574,-0.8585561012019187,-0.3882944565985971,-0.9479992186055957
3220925,-0.002724987605659813,0.007014793462902215,-0.004036965440580783,-0.984380638699276,-0.5647290793684312,-1.6907228524743037
3220947,-0.002865201594091413,0.010450834680634796,-0.001808072864103163,-0.6890493973056784,-0.581507184509336,-1.7497607205729255
3220969,-0.003050486926254587,0.008406887834467145,0.0017257096780146602,-0.12311514585074233,-0.5020083163134458,-1.0195254981462512
3220991,-0.005513692032253426,0.001341957311300613,0.004382521796615698,0.1775274361156545,-0.5286171677828096,-0.07484118060224271
3221013,-0.011004256474181103,-0.004357829520022467,0.004000456802321253,-0.17930860681506297,-0.6479070286728713,0.47951694067630146
3221035,-0.016124889847891993,-0.0024270069433983744,0.0002439834190602607,-0.9988765019832385,-0.5966399149700296,0.49270755193700977
3221057,-0.015666805852327402,0.0069737009501111185,-0.004949960969746332,-1.6516773799854432,-0.2122858273173845,0.11476545648220488
3221079,-0.008182672212272871,0.017079723790579596,-0.008604763738080579,-1.6615991332146511,0.30465644653205354,-0.5164714125246608
3221101,0.0016332281312273393,0.020140333127606356,-0.008546484589625413,-1.1174216269916482,0.5813595929381006,-1.241729648016646
3221123,0.00705976893725796,0.013436215233148956,-0.004772065828106144,-0.5452559853299144,0.4738372658573915,-1.7494157939161878
3221145,0.005580289470103392,0.0012011872566370508,0.00044481168610572164,-0.438107961771965,0.17197279048090466,-1.7768134645309275
3221167,0.00034820356688393264,-0.008395346358103968,0.004069809417391945,-0.8785489379521241,-0.06200943289342463,-1.4095607914694785
3221189,-0.004027440884999276,-0.009118716148767022,0.004511620924883995,-1.5094045579915758,-0.11307450557970938,-0.9506842056624387
3221211,-0.005712967776421243,-0.0013586365859372946,0.0025388159229389287,-1.8261848248658017,0.04927559947344818,-0.47999098899405324
3221233,-0.00548123288406082,0.008397439838705518,3.008706836892509e-05,-1.5787379050091475,0.46623530354199555,0.23233020983293015
3221255,-0.004120502221361056,0.013365673595483537,-0.0019612974985176537,-0.978896234646868,1.064155267621135,1.2831916366198752
3221277,-0.0016452782618363803,0.012198397624147603,-0.0037218910075013842,-0.5118862744746766,1.514970607774628,2.2836391499605493
3221299,0.0013291406186095047,0.009073809759675222,-0.005750103558148518,-0.4947911356259599,1.4199785487422019,2.614719329516143
3221321,0.002916448088755299,0.00863230516801738,-0.007579504444573648,-0.8010352998858227,0.7119786245131585,2.00829609869057
3221343,0.001447732593971067,0.011393395210649153,-0.007852610778903545,-1.015838151420601,-0.18425035332570927,0.8077241376690057
3221365,-0.0024517249446850712,0.013874512048809247,-0.005501664537033413,-0.8527896999002013,-0.661599238557836,-0.30231904222852907
3221387,-0.005700963486481611,0.012577136749066829,-0.001002318077801172,-0.4258543781972223,-0.4361280699026239,-0.7890745452098702
3221409,-0.005278224432421394,0.007923338635934783,0.003386226878708111,-0.1337583155057189,0.21925754730339764,-0.60902254257346
3221431,-0.0012665699798979062,0.004497979473653619,0.004963514786575987,-0.26424760809312514,0.7148776928711345,-0.18265461104482061
3221453,0.002838387759813427,0.0067143929310432005,0.0028298506656856477,-0.676970933093539,0.6413688706328925,-0.00129343137553007
3221475,0.003328227945212514,0.013521773408774739,-0.0010878983730421435,-0.8986013221384946,0.10077381494978044,-0.17256502359179912
3221497,-2.2753762145434305e-05,0.01818256401798404,-0.0037695347780130656,-0.6071549895864656,-0.41388989869753573,-0.3873283099332422
3221519,-0.0036455317276982368,0.01470322816182352,-0.003974594537928358,-0.03561497559786506,-0.4973502913216562,-0.38411789663810825
3221541,-0.003777210800458265,0.00457959491407753,-0.002920021322253103,0.19080642147780763,-0.22194288150537658,-0.34309592141313516
3221563,-0.0002373110763612771,-0.003821074187362799,-0.002256193014685775,-0.31120210361235745,-0.03067828981014863,-0.6699143169525227
3221585,0.0035318818123569813,-0.0030029062483516943,-0.0022368953107233,-1.2358972043610905,-0.24321929778438453,-1.4055705234821294
3221607,0.003827859460590244,0.006776238690364418,-0.002054432448951294,-1.8282641002216702,-0.7278870212877241,-2.030410929253817
3221629,-0.00010809466099437248,0.018111433488099075,-0.0012255506699775911,-1.5797202180181835,-1.0782353678937036,-1.9878557099250267
3221651,-0.005627884919320959,0.023155959634460255,-0.00021088726830347318,-0.6798524553312629,-1.0408459331889175,-1.3382330735815575
3221673,-0.008951660485164565,0.01956197775831222,0.00011271121671950134,0.19097051733434492,-0.7232244716993393,-0.7226630776724828
3221695,-0.008296012329154574,0.010864181580598039,-0.0006373460856406197,0.4742369178810551,-0.42330081606213216,-0.6404270609049084
3221717,-0.005101333626404518,0.002638342732259164,-0.0020402999180364574,0.1574360803597003,-0.3124831136638958,-0.9115230465785191
3221739,-0.0022930789730034305,-0.0011728573803281557,-0.003419192746928733,-0.3239212947943215,-0.30942253496654826,-0.961743472706856
3221761,-0.0018608036260171854,0.00043969878002943886,-0.0043864668700511825,-0.5315253234505053,-0.2539762715707486,-0.5444756501734728
3221783,-0.004169135057988077,0.005853061694427639,-0.004678519486760683,-0.38101204605718236,-0.1439747227863085,-0.03834182095144658
3221805,-0.008285527939268308,0.011710035996310578,-0.00383110812506431,-0.12565370676968343,-0.12299997206685885,-0.025095454447865963
3221827,-0.011929802450321287,0.01446527844038951,-0.0015604446623425274,-0.05069544068033545,-0.2377002094007577,-0.6569890949414345
3221849,-0.012099974179905453,0.012560862215318687,0.0014046240336213164,-0.20745797574501273,-0.31143278672383073,-1.4989629224113823
3221871,-0.007658629004881168,0.007839426200588381,0.003350149811632069,-0.42076708629728715,-0.15267652931272715,-1.991421886069516
3221893,-0.00168084597761166,0.004257010331413819,0.003088750456354855,-0.5026037626186145,0.1460395715156076,-2.0123051187716854
3221915,0.00047912342505631136,0.004360888314046994,0.001299873501144071,-0.435019234661146,0.2515590592092175,-1.93545166258152
3221937,-0.0029481059095860284,0.00706518123126309,-0.0004136663846873002,-0.3663957183321425,-0.010465763065865448,-2.1670210288726155
3221959,-0.007065044831210051,0.009165272517501015,-0.0016182865950488206,-0.4509595177362378,-0.40598029576244243,-2.690975826273717
3221981,-0.005336221297998183,0.00862247941741862,-0.0030369942953967968,-0.6956273255541617,-0.5515457738013183,-3.07431154896397
3222003,0.001822496845873778,0.006016477287216863,-0.004357957881714506,-0.9696980192297582,-0.3702876147228756,-2.8748303467643272
3222025,0.005390025602385696,0.003367229211624801,-0.0033923630498144583,-1.1565311682809691,-0.17787902884853188,-2.0203889121289342
3222047,-0.003613118774433212,0.0021741547399271085,0.0017994711955814967,-1.2543717190851078,-0.3196877995771016,-0.7880692890481092
3222069,-0.024064875835989052,0.0023369552179520383,0.01041815694736316,-1.3201814685919633,-0.7994054012853233,0.5378402401643881
