timestamp,ax,ay,az,gx,gy,gz
2845847,0.0044543911016869326,-2.584186991001297e-05,-0.005863730866997884,0.522200354515313,0.3941046402537772,0.3176530802448289
2845869,0.0037924317062998265,-0.0014020015963202655,-0.0017571543547292294,0.063701264782475,-0.08904625478117276,-0.4148131185540352
2845891,0.0021675155888913585,-0.001757442925650931,0.0017552482882726666,-0.23291667311951367,-0.4216917514663714,-0.8402416474246936
2845913,-0.00012016775553935187,-0.0010210134566149252,0.0037328084151007686,-0.33472871696998185,-0.47849163420801816,-0.7990744752580435
2845935,-0.001854510432334065,0.00030083678300766984,0.0033736082432966833,-0.3266770785343094,-0.25578475214851576,-0.3794017728405561
2845957,-0.0024088131541191316,0.001806372212440438,0.001080153563232281,-0.28178965469817274,0.06981150499424152,0.12902348731551505
2845979,-0.002336136002857939,0.003009377441381078,-0.001368374213731453,-0.1801908494504068,0.2653434845091443,0.4533260691866915
2846001,-0.0022317322667563906,0.0031346331850233998,-0.0022958540943832074,0.017797744787842913,0.2600076738581188,0.5523468374564353
2846023,-0.0016719887620241219,0.0018539250238411777,-0.0016512461672964455,0.252940183690047,0.1951595485052312,0.5920536116780142
2846045,7.407997955732597e-06,-2.806475727814367e-05,-0.00056984795197406,0.3790052422446402,0.22872029804388588,0.6991389087788287
2846067,0.002159306421880292,-0.001218902723076722,0.00034630059463886236,0.30798074085709276,0.3439801323338795,0.798517486022695
2846089,0.0029330125063128493,-0.0012335111411824104,0.001542277269005322,0.1166067913726767,0.4068567245491527,0.740890772918451
2846111,0.0012682907783365576,-0.0007490946385569533,0.003263329422519782,-0.01423232088842999,0.36966632101821134,0.5355418371462018
2846133,-0.0017183112077555794,-0.0008116649569083422,0.004674299209728587,0.030892763707318374,0.33275189218341994,0.36948432112249496
2846155,-0.0037815097021381963,-0.0018552994820415422,0.0047282010100294924,0.18958873919135416,0.3978061081251894,0.39742853891838664
2846177,-0.003630365289474642,-0.003205609604515697,0.0033630030141243365,0.2759531860974582,0.5318025509939016,0.5845934035392512
2846199,-0.0015380794526595634,-0.003375864516947756,0.0013108674620026567,0.16116773481952318,0.6170326787201368,0.7855321107124522
2846221,0.0015291991280322785,-0.0012452169128368065,-0.0008124286755036526,-0.08775899934545432,0.5948404064043038,0.922088669061902
2846243,0.004381882392371101,0.0026572320307926543,-0.0025453216058200483,-0.25726337435292546,0.509208060880038,1.0223318880240033
2846265,0.00542382814125998,0.006069992857297788,-0.002999669590734958,-0.18302745121534855,0.4280565246303042,1.1057127911512812
2846287,0.003361238834443308,0.006496123601218471,-0.0012201543749146995,0.09925303242009909,0.37849355254910416,1.1117214532055242
2846309,-0.0012276975196197292,0.0032407691294460655,0.00243614058653869,0.37853016636034337,0.3668669266691515,0.9827856925317799
2846331,-0.005682159916280344,-0.0016020431860241048,0.005783832177053846,0.43089790262695016,0.4151253049724137,0.7772483885143566
2846353,-0.0072710815908565,-0.00428358255420179,0.006341502572577912,0.1936422104668727,0.5427307201300938,0.6440309824922397
2846375,-0.0053130500955820776,-0.0022283179650580904,0.0035310755005579352,-0.16906447568663208,0.719588495023413,0.6796317170873235
2846397,-0.0013429698206105442,0.0036647647544041186,-0.0007632330674437916,-0.37435216251395637,0.8559662372769712,0.836354370188439
2846419,0.0021754875214480413,0.009532833284023084,-0.003767582504613733,-0.2437659511302388,0.8554158242532601,0.9782508446014191
2846441,0.003191681367407063,0.01159723662868823,-0.003916924406802935,0.14899138703077927,0.7003880458578784,1.006851768781888
2846463,0.0011386406911493385,0.008944361369536557,-0.0017091525398847667,0.5486754367178867,0.4939761906986174,0.91316885901267
2846485,-0.0024835916094921575,0.0037568616083321262,0.001083432319734476,0.730804207738803,0.3920357637643137,0.7216599460686969
2846507,-0.004922039546302844,-0.0006970668768365492,0.0029048170306087465,0.6532514258280526,0.4723741914308087,0.44190178332348085
2846529,-0.00435327190772303,-0.0024142711296792816,0.0033494634404143877,0.4415712383109657,0.6774800104863762,0.1239348410365315
2846551,-0.0014882819581686433,-0.0016623065148628643,0.00295534249072313,0.2606384442794858,0.8860250534683278,-0.07799122678655598
2846573,0.0012606201084769243,-0.00011146074183331691,0.0022688951551564545,0.19078561777036357,1.0204284895524303,0.002405045764411815
2846595,0.0023025237797219965,0.0008979842458765295,0.00124249653492407,0.19673576120738406,1.0809279503322056,0.35176579321149243
2846617,0.0022568824760099237,0.0012333398596088684,-0.0003156303843102557,0.1908627864760593,1.102306875195895,0.7460081141942123
2846639,0.0027062377276447468,0.001532214698858904,-0.0018893615454154047,0.1151849260880681,1.10452534324649,0.9655262078915492
2846661,0.00407524635982676,0.0025187080141684933,-0.0023918556217835726,-0.020569465464259595,1.083183216483089,0.9992588879486589
2846683,0.005311112971211354,0.004638672900151184,-0.0013470593133671415,-0.14151572177465296,1.0269830735781227,0.9856266904917661
2846705,0.005459817024266224,0.007518795621204171,0.00046246293873063843,-0.1398020909238063,0.9331726914455104,0.9959758673642247
2846727,0.004790300807143264,0.009561405123437025,0.0017974695471058358,0.047036536336011195,0.8085436039185656,0.9536734182057779
2846749,0.003983610241622423,0.008908598363019,0.0022110979276561784,0.34656481219142365,0.6627248138296749,0.7692787059182208
2846771,0.0027933249267883932,0.005376287116787234,0.0023241915201160424,0.5661473201610677,0.5190596392702064,0.4993147295306546
2846793,0.0005880825877195789,0.0010316888139663013,0.002887480470945513,0.5550264747273314,0.44622039067058394,0.3332521345941337
2846815,-0.0016127525797446985,-0.0014957106520181785,0.0035939403455180706,0.3592312532202904,0.5385916345897777,0.4141122560429199
2846837,-0.0010990497618508922,-0.0010215446669979646,0.0030469173671306294,0.17695319970594847,0.7931166471788861,0.6716198246665794
2846859,0.0032347971319127474,0.001761307389948212,0.00035515153143819787,0.15512245259830562,1.0197566593292484,0.8558909591382076
2846881,0.008455593113648392,0.005067993464017195,-0.0032827422532655495,0.26808799518758536,0.9842769658226226,0.7760033641153321
2846903,0.010220630782799361,0.0069774348345383735,-0.005224202501449153,0.3981063872485503,0.6790766819708803,0.5060028875009638
2846925,0.007671654878927098,0.00638555239557898,-0.003859160722897821,0.4759092791138405,0.3600939472797675,0.3131180194443696
2846947,0.004137449817340789,0.0037632385737590814,-5.686525734317134e-05,0.5043057060267117,0.2644920705997116,0.3760996827327425
2846969,0.0028759294008959425,0.0009205603260123746,0.0038466450298181706,0.4814709050973047,0.37657066847830406,0.6238614891706694
2846991,0.0037238706098591356,-0.00038382946584160257,0.005915771325383962,0.3652595313622571,0.530487014261593,0.8648702662238368
2847013,0.004496055643651294,0.00018456598650339078,0.005540704111283586,0.1352511094394486,0.6472591418354878,1.0062825562235702
2847035,0.004102649866259745,0.0015185556947331946,0.0034872986274078047,-0.13784717521323714,0.758690651187668,1.0901204968300109
2847057,0.00306911628839218,0.002460409050259808,0.0014579420891257205,-0.31976762537779396,0.8533868474109664,1.1600884026459066
2847079,0.002065213083228486,0.003151199928292728,0.0008570618982287415,-0.3145824130678897,0.8465448276449775,1.1765308512217278
2847101,0.0014086338076827309,0.004659139432853556,0.0014520649797759694,-0.1291905496013578,0.7212879561846817,1.0677649053495417
2847123,0.0015406448786381992,0.007008728511385306,0.0017705132620002245,0.1502258491362076,0.583943927800685,0.8055621988224064
2847145,0.0027066041446400253,0.008056997192867796,0.0011723095470816314,0.41688931257856654,0.5303665561675592,0.4174736808622131
2847167,0.004269701478028484,0.005326525123296116,0.0008077849779649435,0.5768407128483198,0.5296275004743647,-0.020075144021189976
2847189,0.00516980572491401,-0.0006723733452461101,0.0019053848749229726,0.5626353185924611,0.479463925639315,-0.37827009754919877
2847211,0.004930799217612504,-0.005708491890763544,0.003720758394498738,0.36556084921638043,0.3321606224008393,-0.5193271529855739
2847233,0.003669991204150571,-0.00539033446167198,0.004110097054917411,0.07956236448528911,0.1475683446689805,-0.3912486409666283
2847255,0.0015450802540620963,0.0003815742614234943,0.0020361291838831928,-0.11120799784102949,0.05586454249353791,-0.06858536718622463
2847277,-0.0009209078894175125,0.006951246232005303,-0.0012164245378568218,-0.045793011151322574,0.16498044705338488,0.31240672358554944
2847299,-0.002170830062053504,0.009052340064061684,-0.0033731624166434297,0.26850574912630737,0.454348357292381,0.636115193205343
2847321,-0.00048413432830155635,0.005347004536220802,-0.0031729773912280244,0.6223438317727328,0.7426824458078803,0.8281109480854993
2847343,0.003834015298896619,-0.0008130150480040179,-0.001034161134019633,0.7478359238678567,0.799744294427532,0.852083642722077
2847365,0.007742880293409648,-0.00460046947538763,0.001647918946523648,0.538113886904451,0.5339092361215934,0.7328745541186649
2847387,0.007890868049427836,-0.0037269546407877672,0.003550717149415248,0.1487099926207981,0.08290862070529287,0.5634153523863886
2847409,0.003971807768608933,0.00017172670755257578,0.004107540256661977,-0.1272369964151339,-0.2918374667411357,0.44167526675407937
2847431,-0.0007705248412663897,0.003610971171120348,0.0035891353899940364,-0.10481787786222259,-0.41514165883176773,0.3885278359180627
2847453,-0.0026136102136193255,0.004418845329695268,0.0026671979906197464,0.15981465755345992,-0.3082325947603452,0.3540559634220307
2847475,-0.0006675065341532794,0.0029760451616376925,0.0018279462674302516,0.4595811032831774,-0.10509974674526162,0.3167802571882123
2847497,0.0029166827351193524,0.0010406198652980958,0.0010611071369252833,0.6226806424459639,0.09766966512350238,0.34075984831465866
2847519,0.005424340422479572,1.5463439809905845e-05,4.824216862404364e-05,0.6125550560399198,0.2751984016293578,0.4908070557639884
2847541,0.005730168046676421,0.00018397117777455127,-0.001244139898026798,0.502429931418414,0.39256123407215243,0.7041970335784703
2847563,0.004366847698488363,0.0009179607700609516,-0.00209692276631076,0.39654944578159884,0.372832794696114,0.8099765447585753
2847585,0.0024141606691547345,0.0013449382315862356,-0.001402967593029498,0.3609191571545117,0.19816737941015006,0.7099515952556732
2847607,0.0008579373006696309,0.001100775448335162,0.0011239006476611911,0.39166602920377175,0.004040998211853103,0.5025872150023917
2847629,0.0006575911484662639,0.0006320620285525125,0.004075613209652204,0.432825526850855,-0.013218213076630361,0.37804656740062104
2847651,0.002453533807644015,0.0006611469039692321,0.005182545833363302,0.4262264302314116,0.18388078740316383,0.406133956660904
2847673,0.005601520922140882,0.001354025677867978,0.0035003873311911975,0.35103228228719385,0.3977243524149214,0.4828911965373942
2847695,0.008025092153593379,0.002223443743921641,0.0005636979250353712,0.2293565445568768,0.39782472543968056,0.49118072967967047
2847717,0.007937230383629309,0.002901662667552884,-0.0011714974562884578,0.11003524363497041,0.18359725705646757,0.45149653572617676
2847739,0.005664772116379694,0.0036961284202756037,-0.0008982281188603867,0.04815222752465597,-0.016546962727268986,0.46875113851623185
2847761,0.00310503742684349,0.005016327956901085,0.00013405555837315718,0.08286499363926453,-0.012009318611898958,0.5608155410714696
2847783,0.0014855493198998528,0.006322162465931958,0.0006245759026409909,0.21307913465682085,0.1477952836780605,0.5930635562982033
2847805,0.00035416946422991925,0.00612183734143563,0.0007518659556799846,0.3885292669670575,0.2565863970502393,0.3866788748617909
2847827,-0.0012969552579528373,0.0033190270902037538,0.0014783211900377153,0.5437849687562516,0.17435570778813872,-0.1290437371989937
2847849,-0.0036557600585962868,-0.001526039533994508,0.0030340740528591514,0.6590081229694015,-0.0636311659853065,-0.856890980075927
