timestamp,ax,ay,az,gx,gy,gz
2866923,-0.013273488712990299,0.002351961197588904,0.003219663057822209,0.057737452876720344,-0.24452209589444607,-0.5268217179369268
2866945,0.0006827471146518818,0.004666179886444574,-0.0019000831789845443,0.2569841774434314,-0.16794542167576976,-0.626356673223935
2866967,0.008959632148033022,0.0028950645485938714,-0.0026807351924813946,0.45172045415829576,-0.14638982586696486,-0.6046526224966112
2866989,0.010262179964596703,-0.0033628638472175867,0.001422479852476317,0.5122850944760394,-0.15465819537933295,-0.3756202866037088
2867011,0.007272982633733119,-0.009927043053472575,0.006728090740465233,0.2771033663857343,-0.12911877344893208,0.04825602558700931
2867033,0.0028828064184547968,-0.01125250865099432,0.008485317531593164,-0.21289106992403156,-0.06129484913048542,0.5092111696888513
2867055,-0.0017784286715213028,-0.005549193139935684,0.0048235068150159375,-0.6420434613786602,0.011395653978333363,0.7641023514081593
2867077,-0.005748315342995411,0.0030846992365411827,-0.0018137505362514229,-0.6655598724496927,0.10517906577607398,0.6605900103701665
2867099,-0.006629362995024866,0.00814054868568648,-0.006995729068467367,-0.2498898986420008,0.2987493302459917,0.2817707245976355
2867121,-0.002485607367130076,0.006635409834101925,-0.00820468437992328,0.26363457998960693,0.5837981917257276,-0.11993325400501421
2867143,0.0048134183615916645,0.0015517494352657812,-0.006406005109612859,0.4599306054246427,0.7687203473028146,-0.3667987469537777
2867165,0.010090872945746704,-0.0015292785935875387,-0.0040650055250801885,0.21890723818665023,0.6477137199827919,-0.5094493898646516
2867187,0.00988643426250638,0.00010876751649311638,-0.0024758361743886866,-0.19972840439269568,0.2732083837682337,-0.7064403704348041
2867209,0.0061512100202544525,0.0042457425355474174,-0.0013060785616781985,-0.41265683419222965,-0.04655451773637356,-0.9907848916345173
2867231,0.003863689913546082,0.006554466762735845,7.006376705664065e-05,-0.25111681850837897,-0.07218443882518248,-1.2218818910786506
2867253,0.005391265848290417,0.004853162866346055,0.0015274658488356025,0.12727436277763676,0.11687264890908503,-1.2572639390022649
2867275,0.008310766360145492,0.0005468294213709953,0.0023112354816391466,0.4189709731415607,0.25302670446128284,-1.1074527116075727
2867297,0.008891810885251927,-0.003452097315333973,0.001825171606794635,0.43324168676481656,0.19703749624852943,-0.9173916110128371
2867319,0.006648352268979991,-0.005577466788337932,0.0003145466132890333,0.1907508952675277,0.04377973207575819,-0.843492262021518
2867341,0.004505458108919377,-0.006362331733625026,-0.001132059787581188,-0.16408693180362996,-0.0482569548808583,-0.9374092509446307
2867363,0.004797424275056344,-0.006815277566556027,-0.0013893003033597189,-0.4961186542669345,-0.0299844870469388,-1.0860251125368727
2867385,0.006378879318789257,-0.006682834329812814,-0.00030921199118107953,-0.7410689912274577,0.04832091094777444,-1.069166093851411
2867407,0.006429046060180362,-0.004790774401491668,0.0010389625304929285,-0.8875547048958221,0.1320418692874505,-0.7585451250425866
2867429,0.00436998130311423,-0.0009023991100064871,0.0013060038033009184,-0.9391523679217975,0.18883230975251472,-0.3000563042898145
2867451,0.002735854546323722,0.003525096558878843,0.00013606703561284822,-0.9060426070534653,0.18613371080398494,-0.04627894503147681
2867473,0.00409202947036168,0.006646709333328294,-0.0016386625376457295,-0.8093884632166167,0.12365665959924108,-0.2380991375185949
2867495,0.008076933537926415,0.007548212229499056,-0.0030541203996474523,-0.659547000851056,0.08884228574632094,-0.7424880312916111
2867517,0.011784208089681234,0.005886412236844103,-0.003776793041431342,-0.4453739273525949,0.19909718259236106,-1.1395427792336192
2867539,0.012476233279345265,0.0012835696693742427,-0.0036614272161488892,-0.20094442016587455,0.45749087920314885,-1.082452541284773
2867561,0.009955713002058575,-0.005493888955606179,-0.002432758134951215,-0.08427365073815624,0.7229674781906392,-0.5679432352906812
2867583,0.006902605471094114,-0.010927004824266244,-0.0005505011068461832,-0.3030951034145798,0.842208104495311,0.10171637365415608
2867605,0.006639009715896902,-0.010214734620475162,0.00037813116169942444,-0.8839011132528001,0.7622709513675181,0.55764852298978
2867627,0.009722981496482572,-0.0019663420244452738,-0.0007535237774063808,-1.5370942274849602,0.5277704895118809,0.598281151984457
2867649,0.012927776341597832,0.008922377930518557,-0.0027690896477750517,-1.839382150518039,0.2444236134772143,0.2958659054847003
2867671,0.012492757207284384,0.01469545617695715,-0.003255350514511865,-1.6050664454422128,0.033982835525986535,-0.09056879117418547
2867693,0.008260821121758657,0.0118926136501528,-0.0014556495498763836,-1.0692891916462572,-0.06748728537751872,-0.3537219881229666
2867715,0.003646034634185742,0.004573434138906271,0.000878824515368433,-0.6778044624344649,-0.1656980343705153,-0.49978318419709555
2867737,0.001672707802599397,-4.1683242783790183e-05,0.0016568719509766575,-0.6855861229318501,-0.3587458377631066,-0.643142239537902
2867759,0.00235125923090684,0.0015181365457433214,0.0004208111970083038,-0.9625905716686411,-0.5271758434705702,-0.7863206985892238
2867781,0.004156985062918362,0.006983264971663914,-0.0021313542072609317,-1.1744134317851085,-0.4189082058506269,-0.8098292373330209
2867803,0.0065369001611151915,0.012099645355662133,-0.0053226458613901285,-1.1021630044164894,-0.014118879718882281,-0.6828078290112322
2867825,0.009856106156711812,0.014467427701138718,-0.008207931569785373,-0.7638750727622933,0.31940091926554537,-0.5594501562335967
2867847,0.01363024683679547,0.013686784001878194,-0.008961628778600864,-0.3014265688629159,0.16263254254470072,-0.5954501383088583
2867869,0.01600150963359658,0.009987191360749086,-0.006079248680328934,0.14239585127586513,-0.4969676574885854,-0.7436047316046599
2867891,0.015130249011551817,0.004299344761617563,-0.00042913086858876483,0.4445301250671906,-1.2261855816892544,-0.8158981003651824
2867913,0.0108380115428108,-0.0012965381622335576,0.004820167665571953,0.520165591683865,-1.5471029273354096,-0.7094581859772421
2867935,0.004958634096393807,-0.004828189588809796,0.0068815157444640975,0.3859493165470822,-1.3196812064225212,-0.48473539130731536
2867957,0.00017355025435150195,-0.006058119593331395,0.005680293878098073,0.15268797959174943,-0.757383680147192,-0.23679496965174662
2867979,-0.0016369058013660036,-0.00589269434548526,0.0032375552494386447,-0.09304313037111325,-0.17319301650366878,0.00841034288561348
2868001,-0.00020611025016897472,-0.00445367095932851,0.001131047641273248,-0.35794217020243063,0.23144525985181094,0.24082015693518893
2868023,0.0032924301062942233,-0.001006645412362999,-0.0006995338290033341,-0.6472063920966997,0.3963159582307522,0.40269132266186763
2868045,0.006690439117870476,0.0040129846430152485,-0.002575714395667929,-0.8504842876843929,0.3538422055766654,0.4568925008939685
2868067,0.007652456434335039,0.008195616311697322,-0.003571385803229282,-0.810708689190563,0.20684689185727648,0.47504167123605273
2868089,0.005339035913686407,0.009250360835342378,-0.0024165846291617833,-0.5141847862015133,0.095894557913146,0.5654613561546175
2868111,0.001673325053833491,0.007296204777156544,0.0003957534245695646,-0.14343698894459614,0.11210921777149406,0.7017916240231661
2868133,0.00016345111142188038,0.004301615105698554,0.002531694902526025,0.0892652847841886,0.23072790816471253,0.6937675784869769
2868155,0.0027206096642041853,0.0016971970659474568,0.002211737748395759,0.11628452916799768,0.34933626878940144,0.3835564638295016
2868177,0.007711821316463179,-0.0005295611099148824,8.762551569514578e-05,0.0006500888017841409,0.3822592533209449,-0.1415936688265526
2868199,0.011456590443941888,-0.002459274058432437,-0.0016943813159828903,-0.191030784098901,0.3071013779575167,-0.5793725467961316
2868221,0.011574542780352495,-0.003000396783766285,-0.0019960102746038612,-0.4330765553173117,0.15141174634161125,-0.6806735976952374
2868243,0.00864172017557319,-0.0008086702831386263,-0.0016683328877273517,-0.6717521317718925,-0.027403963880141963,-0.4789213048862165
2868265,0.004761347018188625,0.0035810903030208726,-0.0018281841474890848,-0.7869336708993325,-0.14891346742791217,-0.23723995940236667
2868287,0.001381728687561346,0.007145348332223965,-0.0018166539772816283,-0.6768299264881005,-0.11390010866489857,-0.17451262575730447
2868309,-0.000768434647026169,0.006661547550290501,-1.948719163187766e-05,-0.38049408782632305,0.1630837319501529,-0.270595397927669
2868331,-0.0004468622476538136,0.0020733873384047048,0.0031762449542740716,-0.0854879356794195,0.6482397775980394,-0.3610636275526165
2868353,0.003393924101719835,-0.002675137469727348,0.004759368888792212,0.02034143362256801,1.080812158910878,-0.3927100683694278
2868375,0.009027169455213908,-0.002987638918540018,0.002627022057187985,-0.07643273796427272,1.0837809008393149,-0.500445653757461
2868397,0.011881120452482867,0.0016247742914270462,-0.0011949744770876518,-0.1968769969779834,0.5399512108360413,-0.7791262827070071
2868419,0.008983053356933935,0.00642313587328641,-0.0025308671068046246,-0.14759181829215628,-0.1555590499514116,-1.0510300808413844
2868441,0.0029784458201987172,0.005792805187142589,-3.1490548472389195e-05,0.07249319222882604,-0.3902025583698555,-0.9951095825569417
2868463,-0.00020185800572558262,-0.001000675126402959,0.003429792985649762,0.24322753808138733,0.0392912351463881,-0.5329952482990095
2868485,0.002106534729292166,-0.008584418704537794,0.004472962411992394,0.11611446215090857,0.7017831276554368,0.02660163342850834
2868507,0.006784752164412389,-0.010197865653312646,0.002732798076951204,-0.329649717329181,1.0113227588008216,0.30262366530552376
2868529,0.009439385071050813,-0.0038771079856519505,0.00014658200418463552,-0.8071295688516883,0.8335854163803357,0.23652709923283696
2868551,0.00955392930945938,0.005649596951704862,-0.0017478133757085992,-0.9357817163545493,0.5147170105507148,0.10159489536728908
2868573,0.009845805541524113,0.011003505466375529,-0.002681597316075457,-0.592865484277332,0.3970815367448439,0.1658713071591151
2868595,0.01187922576814066,0.008399568692647045,-0.00277240759130986,-0.06191027444819494,0.4672169603849672,0.4321209534373921
2868617,0.014193166848641617,0.0004982794598652976,-0.002122813427024309,0.20101398506510004,0.48027742211150615,0.7020690961247963
2868639,0.014351290938461504,-0.00644887929132802,-0.001119531424320065,-0.028501273964729783,0.28549916043774376,0.8142744991958341
2868661,0.011271382471952494,-0.008157491735326374,-0.00014724875823083074,-0.5653497032917576,-0.036504027685806066,0.7851256889366837
2868683,0.0056837353448346865,-0.005354789989887467,0.0010798148344874827,-1.0194888467491947,-0.26794679154054424,0.764584274124585
2868705,-0.00021110402764397613,-0.0019907263882500592,0.0031601849970270927,-1.1531446247752246,-0.2056894950360995,0.899065962975318
2868727,-0.0033597276313664885,-0.0010217422931887285,0.00572955852697052,-1.0466992314194674,0.21916856876162516,1.2098762742987184
2868749,-0.0015765280235785172,-0.0019358768749542774,0.007087014020277846,-0.9573937266898501,0.8615478806604305,1.5433524261065472
2868771,0.004380983333313149,-0.0019356856215029842,0.005591596025503795,-1.0454773963923494,1.3887182698960259,1.6371528382142781
2868793,0.010866478400985893,0.0008202923012197703,0.0013863273787911676,-1.230216305502962,1.4767453474810044,1.3054203605679575
2868815,0.014248169010597271,0.005273869899471865,-0.0035391554516740983,-1.2936332954782168,1.0646764004236913,0.610135163718893
2868837,0.013872617163355467,0.008674083426190148,-0.006980726431935511,-1.1135533697641073,0.4180405850848221,-0.1657881496464128
2868859,0.011803432727865118,0.009251745298097296,-0.00787239399653062,-0.7846412655784142,-0.09555151382103341,-0.7362406098355153
2868881,0.009930783118830928,0.007266211057019906,-0.006099501229493484,-0.5145022358580295,-0.2965334812860594,-0.996483899934131
2868903,0.008344308789725042,0.003911624563225832,-0.0018946776662636766,-0.4299529260462814,-0.2519528123424947,-1.0164396464134262
2868925,0.006549242989703269,0.00010877979763466625,0.0039245228439227925,-0.4915573223343874,-0.10709000092935764,-0.9229204035126947
