timestamp,ax,ay,az,gx,gy,gz
2873941,-0.0011637278487875407,-0.02198175967456582,0.00605674840179026,-0.6309472802099111,-0.30402436771886865,0.6016628680940824
2873963,-0.0021282106807722287,-0.0022705849784490726,-0.0013704375188433174,-1.0614909654995632,-0.08064706883928796,0.5468519161032804
2873985,-0.002102907518246882,0.013530518668044564,-0.005829008123121478,-1.0841639782246775,0.013598017154868991,0.3322659975383744
2874007,-0.0013218080975802575,0.02160543525486172,-0.005761855321659682,-0.5546531210289098,0.00022081942203612277,-0.011332420556243224
2874029,-0.0008005369295780015,0.01957605237439608,-0.001998103985133777,0.30975318773818156,0.009164070405694037,-0.3054485478855595
2874051,-0.0008768279036393513,0.008736216339744352,0.0025569172653126305,1.0582671140821556,0.10148720931519094,-0.4242937649884887
2874073,-0.000817766435882224,-0.005004789467231466,0.00489260225355846,1.2894328402774666,0.187700929522931,-0.3926758182368599
2874095,1.330905888020395e-05,-0.013675073515807122,0.004161993287973519,0.916614396650596,0.14780108916274207,-0.2921599400313631
2874117,0.0012703756790594836,-0.012527448059175418,0.0019719379378607877,0.23044501467429618,-0.0035653476290433126,-0.14771707817439148
2874139,0.0022636237776129907,-0.0036949691379706043,0.0003131525164718023,-0.3052172086203994,-0.12347797387425373,0.04937620057691995
2874161,0.002782300736365924,0.005695035901947527,-0.00040513532688011845,-0.3822120368413555,-0.11669206561764878,0.2482144137137388
2874183,0.0027217827728711866,0.009565438799475225,-0.0009638681222420416,-0.046564997406835236,-0.05691404560135193,0.32651160872335777
2874205,0.0016779082136462046,0.007293153246831271,-0.0016029590129236456,0.3861084919173033,-0.0900032337892809,0.18701582376079018
2874227,-0.00018667330918997136,0.0025436764499074875,-0.0015753580098800018,0.6085088097953097,-0.23486523455970432,-0.1358276102719307
2874249,-0.001412072120477524,-0.0012938709510737028,-0.00039331455300337293,0.5405563618071063,-0.3370250624479713,-0.4610052808800525
2874271,-0.0004200432330066802,-0.0036947672704451453,0.0012001126852372395,0.3129501167544043,-0.24609243121331972,-0.5751339658656925
2874293,0.0025484953188146292,-0.005493572801571417,0.0018427325381054891,0.08303318209497101,-0.013784791602605624,-0.4070554469932719
2874315,0.00524325958193196,-0.006481305646019098,0.000996859292524494,-0.09850877942903141,0.1308379970373085,-0.09256096684223417
2874337,0.005362887191108899,-0.005672551404042894,-0.00038637642469073447,-0.25756393062371347,0.030487877244464973,0.17081738630489507
2874359,0.0027429231495794807,-0.003253873799681481,-0.0008380629630696304,-0.39932500429446627,-0.20170982230436882,0.32246885769815353
2874381,-0.00031136970998701713,-0.0008008459652198319,-8.425313124243368e-05,-0.4839728319821116,-0.29482169658708646,0.433388929441912
2874403,-0.0011087065953023394,0.0006361349914806211,0.0005983894270625935,-0.4774518566134626,-0.1441104014019233,0.5136250208716523
2874425,0.0006610082133199417,0.001654279301495024,0.00010228825459031555,-0.3816182306096115,0.05022484088284675,0.4302851434918827
2874447,0.002493011954001814,0.0032312056264919746,-0.0008958557539769396,-0.211772166133496,0.02505402734434766,0.07719161670874565
2874469,0.0018937637498614736,0.004974091625280372,-0.0007878793474657294,0.019773049448850163,-0.21381202957961593,-0.4345176561786338
2874491,-0.0005863877523072907,0.005241391132365603,0.0006984242046834411,0.28405118087130554,-0.38257209996729263,-0.8269278395925196
2874513,-0.001793645118466298,0.0028088583195752083,0.001970554192261171,0.5201264478372788,-0.24006238737624813,-0.888441676700571
2874535,0.0005051987243310758,-0.0018565177045215056,0.001457050307292904,0.6489569375178206,0.14109887728435175,-0.6370930373234479
2874557,0.004974545795385813,-0.006613490878540823,-0.0006373032223906516,0.598209774073646,0.4387079918367761,-0.2852715349269172
2874579,0.007767000071642682,-0.008651646870975633,-0.0026427606752355533,0.3406651241531143,0.388760011802504,-0.06895734409627005
2874601,0.006180931380818865,-0.006196610750072008,-0.003008885524600959,-0.04473245255238806,0.03210600988563633,-0.07974764090470153
2874623,0.001299784817684353,-0.00027010770946884983,-0.0014723163010906942,-0.35620645919692745,-0.3165389842390369,-0.22259286661653588
2874645,-0.0029931559343404843,0.005264063127525564,0.0008932841373795573,-0.384689395362766,-0.3474855691066002,-0.32967204529096084
2874667,-0.0036576094247787205,0.006478227685752067,0.0025482688511255193,-0.10249129319336445,-0.03503704653889466,-0.31867906673154167
2874689,-0.001114080532831849,0.002923189162752059,0.0026219649628372236,0.27384429683747674,0.3430596875361839,-0.2413318867600892
2874711,0.0017507433706439855,-0.0018406536719020926,0.0013732760863632311,0.4493519735850035,0.46484028358426815,-0.19726402329831627
2874733,0.0028557814980194962,-0.0036155978752476278,-0.00041190934355854974,0.30237105931295133,0.24653084068203437,-0.2299819419342669
2874755,0.00268038723798202,-0.001413981448825968,-0.002194020519235367,-0.020183422810847576,-0.1247370520864626,-0.30874128543757023
2874777,0.0027114198279689534,0.0020536344242352463,-0.0035869265899323255,-0.24843642463729884,-0.40811422776028994,-0.38375464503201767
2874799,0.0030173944040377595,0.003364998318988039,-0.003921130369180612,-0.22659345658778635,-0.5152008863773173,-0.4355757245715652
2874821,0.0023117065854468314,0.0016185110997399554,-0.002668359831853915,-0.02007351852948069,-0.5036300683226592,-0.47353500437347706
2874843,0.00018174294849808065,-0.0010963796050089047,-0.00034687258644001886,0.18553580069855224,-0.43918993147716884,-0.5064397530024436
2874865,-0.0017906008072196941,-0.0021047444511624546,0.0015927757729983295,0.2693152710866579,-0.33048776324087326,-0.5313952540543129
2874887,-0.0015295966437174407,-0.0009123964988987783,0.002018288282190235,0.25490707119514255,-0.18472004776238865,-0.5465446733632698
2874909,0.0012981091022592022,0.00039469118914629646,0.0010283403749135882,0.2225634680448133,-0.06284456523027276,-0.5547094167070389
2874931,0.00480988241308197,-0.00045541905873545095,-0.0003829050919356862,0.1702757440289238,-0.04006173281645608,-0.5516264089368335
2874953,0.0066082147241266044,-0.0031929962404965233,-0.0013171929038801758,-0.007768489294591663,-0.11951915840006391,-0.5331825746017763
2874975,0.005886214740833049,-0.004995508151583101,-0.0016055335108084122,-0.38388298815279254,-0.2109147280682992,-0.5195576271637233
2874997,0.003881971021356269,-0.0033906620391335315,-0.0017034794798233433,-0.8400835809385355,-0.21077470403081808,-0.5401536485290308
2875019,0.0024430212873263807,0.0011222933223916784,-0.002123872242388546,-1.084121754683924,-0.11211298699577685,-0.5772335944748989
2875041,0.002328206241984659,0.005657042443651091,-0.0028875392717073586,-0.8774641410471582,-0.042636970257982756,-0.5613626438453885
2875063,0.002783897428488712,0.007896171803425587,-0.0033977802289123877,-0.27550836913148335,-0.18195640222949533,-0.4632483946790893
2875085,0.002498817854564646,0.007938825313634204,-0.002929272968450754,0.3868671968223032,-0.5917117500129293,-0.3651622091412465
2875107,0.0009781982092864694,0.007144606154793156,-0.0014131357936155791,0.7858296662893884,-1.0917654608940588,-0.38107916399404385
2875129,-0.0008899676346847398,0.005915076691600153,0.00029018389521772624,0.8700354489334814,-1.3500121344968028,-0.5081475706972907
2875151,-0.0018310984483446797,0.003545843450476308,0.0011099912191445676,0.8122064290245958,-1.1764324054548456,-0.6222512183389175
2875173,-0.0018859608468129894,1.430740030525487e-05,0.0008683420359601963,0.7601811153309396,-0.7223800510529148,-0.6342132953117875
2875195,-0.0024931108216951904,-0.003386989040666901,0.0004942907023096352,0.7148687978768821,-0.3094747159608452,-0.5859280389666536
2875217,-0.0042005626564696604,-0.005588974215279054,0.0008611141360086087,0.6204259562441797,-0.06733135220906014,-0.5636810271766158
2875239,-0.004927806215824031,-0.006877121769035134,0.0014992763108394491,0.4666743742660804,0.1503863986307116,-0.570092566056847
2875261,-0.001906474015829615,-0.007849626175996719,0.0009716131280843596,0.2725817287580135,0.4631455689111035,-0.5274753104360662
2875283,0.004364234733149309,-0.00797983246131793,-0.0012216868752543736,0.03586669294236036,0.7044602149964974,-0.38963046139528396
2875305,0.009241029663701134,-0.006102311161579501,-0.0035131705700079717,-0.24277661806088568,0.5836259884852713,-0.2112897088836326
2875327,0.008054169262181632,-0.002222412232648083,-0.003587383687452945,-0.49272625268284753,0.07824145400492553,-0.09512173997021578
2875349,0.0010824763154315855,0.0018524945104686627,-0.0009333620073136079,-0.5778873243699997,-0.4471946841517415,-0.0901387008472503
2875371,-0.006159227345866199,0.0039415167296034115,0.0022539970516597843,-0.4084448531239545,-0.5771390005238679,-0.16719314319107445
2875393,-0.007935024495646845,0.003195275454623807,0.0031013201815379425,-0.04937868756686176,-0.2704757410507077,-0.2824116855603953
2875415,-0.0035211348306191104,0.00029446733032027474,0.0010082506776851567,0.30569821124778984,0.10574317757454017,-0.41444908548287146
2875437,0.0025958435959965464,-0.0033583043332395084,-0.0017505801182942308,0.4748662007685988,0.17172481596008501,-0.5186332866458822
2875459,0.0053596958362784886,-0.0060886949835380014,-0.0025005902588801005,0.4018125148852271,-0.08520968114518718,-0.4998815391425
2875481,0.003588624404634218,-0.006128487425959353,-0.0009027973910999028,0.16347506630962103,-0.35029686523607745,-0.3041688168610629
2875503,6.440926574845907e-05,-0.0024282883910169886,0.0010326018036548223,-0.09016871110771305,-0.3529038089801587,-0.03958461171706818
2875525,-0.001961936004034287,0.004065504590110964,0.0013447573969888476,-0.20083434203104392,-0.13359488989871285,0.058793605677090376
2875547,-0.0017235608727709795,0.009938442059870529,9.677318676337307e-05,-0.05624914320710135,0.058332811401260315,-0.1597608841911367
2875569,-0.0006422635154758687,0.010732973116976598,-0.000966034525617081,0.34628267450857914,0.06453130053468616,-0.5846056158104762
2875591,-5.6174607132723254e-06,0.004077757103043833,-0.0003327873147512073,0.842692755593461,-0.036508458590630746,-0.9033763603418886
2875613,0.0004164548653151993,-0.007606374151595276,0.0017798266117993208,1.1404606375032063,-0.05517239835331126,-0.8493899237948411
2875635,0.00164827637149546,-0.017767715856091115,0.0035921462740855364,1.0064428220254484,0.09531239698446689,-0.39758632224397883
2875657,0.003977320344788419,-0.020166238751387486,0.003332381633278889,0.47091337064861805,0.31421387759424446,0.24402267418452844
2875679,0.006406709148595867,-0.013398755660108156,0.0008326870732676716,-0.17502413114986126,0.39992828469752767,0.7837575154212475
2875701,0.0075356745736220015,-0.0013629977663548462,-0.0023368686167875336,-0.6044490958943822,0.20403198769577527,0.9954267813210106
2875723,0.006813177487501032,0.010145187776639596,-0.004333331611597295,-0.6625948905876469,-0.26304286897106244,0.8086550859394864
2875745,0.00494835441268044,0.01682183933693771,-0.004504027872178447,-0.37024555639583456,-0.8119674061753138,0.3510740773544777
2875767,0.0033071162560753807,0.016668798034942093,-0.0033242733826601505,0.18955276892020806,-1.1233759815476918,-0.0750954699062975
2875789,0.0028232801077241712,0.00949548770709108,-0.0012693543006246028,0.8929144195261681,-0.8904374406566531,-0.14793803636627412
2875811,0.002953009536143814,-0.002694050062655775,0.001739487471774711,1.4842497285961014,-0.0716177043764904,0.2011782413433264
2875833,0.0016239815223258514,-0.015147532417100687,0.005735601496031956,1.597446515200144,0.9370346946521965,0.6335568590756246
2875855,-0.0027670505475894673,-0.022219655643378435,0.009868394572159734,1.0360084461915169,1.521127703123534,0.65730531532475
2875877,-0.008420881683797609,-0.02130051549638266,0.01236568898905836,0.06884764240308516,1.4040400539676912,0.16271203340784493
2875899,-0.009923829233279469,-0.01469544904371739,0.011462339494268236,-0.670310402863853,0.9539967780818709,-0.36549633902373885
2875921,-0.002640534017421961,-0.006887698825663406,0.0066273747392413054,-0.6936115518595749,0.7891416565782651,-0.3226506854461567
2875943,0.012045956541816304,-0.00012062621809424089,-0.0008338387537371127,-0.09772269983009109,1.0713267065665208,0.32909691582524775
